index,subject,order_num,session,condition,goal,block,block_num,block_instr_text,trial_num,stim_0,stim_0_value,stim_1,stim_1_value,position_changed,stim_left,stim_right,stim_left_name,stim_right_name,optimal_stim,optimal_choice,n,BlockInstr_disp.started_raw,BlockInstr_disp.stopped_raw,circle.started_mean,circle.started_raw,circle.started_std,circle.stopped_raw,feedback_text.started_mean,feedback_text.started_raw,feedback_text.started_std,feedback_text.stopped_raw,iti.started_mean,iti.started_raw,iti.started_std,iti.stopped_raw,key_resp.corr_mean,key_resp.corr_raw,key_resp.corr_std,key_resp.keys_raw,key_resp.rt_mean,key_resp.rt_raw,key_resp.rt_std,key_resp.started_mean,key_resp.started_raw,key_resp.started_std,key_resp.stopped_raw,left.started_mean,left.started_raw,left.started_std,left.stopped_raw,left_feedback.started_mean,left_feedback.started_raw,left_feedback.started_std,left_feedback.stopped_raw,right.started_mean,right.started_raw,right.started_std,right.stopped_raw,right_feedback.started_mean,right_feedback.started_raw,right_feedback.started_std,right_feedback.stopped_raw,order
0,0,3,0,social,avoidloss,social_avoidloss,3,Play to AVOID LOSING points

for the NEXT PARTICIPANT,0,stimuli/tunga_08.bmp,-1,stimuli/tunga_11.bmp,0,0,8,11,stimuli/tunga_08.bmp,stimuli/tunga_11.bmp,stimuli/tunga_11.bmp,right,1.0,'22.2864',,28.128093719482422,28.128093719482422,0.0,,29.138851165771484,29.138851165771484,0.0,,28.627365112304688,28.627365112304688,0.0,,1.0,1.0,0.0,'right',0.2686708867549896,0.2686708867549896,0.0,27.798744201660156,27.798744201660156,0.0,,27.798744201660156,27.798744201660156,0.0,,28.128093719482422,28.128093719482422,0.0,,27.798744201660156,27.798744201660156,0.0,,28.128093719482422,28.128093719482422,0.0,,0.0
1,0,3,0,social,avoidloss,social_avoidloss,3,Play to AVOID LOSING points

for the NEXT PARTICIPANT,1,stimuli/tunga_08.bmp,-1,stimuli/tunga_11.bmp,0,1,11,8,stimuli/tunga_11.bmp,stimuli/tunga_08.bmp,stimuli/tunga_11.bmp,left,1.0,30.641866909999955,,31.558753967285156,31.558753967285156,0.0,,32.55610275268555,32.55610275268555,0.0,,32.056819915771484,32.056819915771484,0.0,,1.0,1.0,0.0,'left',0.3851378858089447,0.3851378858089447,0.0,31.14170265197754,31.14170265197754,0.0,,31.14170265197754,31.14170265197754,0.0,,31.558753967285156,31.558753967285156,0.0,,31.14170265197754,31.14170265197754,0.0,,31.558753967285156,31.558753967285156,0.0,,1.0
2,0,3,0,social,avoidloss,social_avoidloss,3,Play to AVOID LOSING points

for the NEXT PARTICIPANT,2,stimuli/tunga_08.bmp,0,stimuli/tunga_11.bmp,-1,0,8,11,stimuli/tunga_08.bmp,stimuli/tunga_11.bmp,stimuli/tunga_08.bmp,left,1.0,34.07133981000025,,34.93986129760742,34.93986129760742,0.0,,35.972137451171875,35.972137451171875,0.0,,35.452796936035156,35.452796936035156,0.0,,0.0,0.0,0.0,'right',0.34719640016555786,0.34719640016555786,0.0,34.571014404296875,34.571014404296875,0.0,,34.571014404296875,34.571014404296875,0.0,,34.93986129760742,34.93986129760742,0.0,,34.571014404296875,34.571014404296875,0.0,,34.93986129760742,34.93986129760742,0.0,,2.0
3,0,3,0,social,avoidloss,social_avoidloss,3,Play to AVOID LOSING points

for the NEXT PARTICIPANT,3,stimuli/tunga_08.bmp,-1,stimuli/tunga_11.bmp,0,1,11,8,stimuli/tunga_11.bmp,stimuli/tunga_08.bmp,stimuli/tunga_11.bmp,left,1.0,37.484209610000654,,38.53582000732422,38.53582000732422,0.0,,39.549339294433594,39.549339294433594,0.0,,39.04874801635742,39.04874801635742,0.0,,1.0,1.0,0.0,'left',0.5060431957244873,0.5060431957244873,0.0,38.00044250488281,38.00044250488281,0.0,,38.00044250488281,38.00044250488281,0.0,,38.53582000732422,38.53582000732422,0.0,,38.00044250488281,38.00044250488281,0.0,,38.53582000732422,38.53582000732422,0.0,,3.0
4,0,3,0,social,avoidloss,social_avoidloss,3,Play to AVOID LOSING points

for the NEXT PARTICIPANT,4,stimuli/tunga_08.bmp,-1,stimuli/tunga_11.bmp,0,0,8,11,stimuli/tunga_08.bmp,stimuli/tunga_11.bmp,stimuli/tunga_11.bmp,right,1.0,41.06318840999993,,41.98014450073242,41.98014450073242,0.0,,42.977603912353516,42.977603912353516,0.0,,42.47788619995117,42.47788619995117,0.0,,1.0,1.0,0.0,'right',0.38587531447410583,0.38587531447410583,0.0,41.56318664550781,41.56318664550781,0.0,,41.56318664550781,41.56318664550781,0.0,,41.98014450073242,41.98014450073242,0.0,,41.56318664550781,41.56318664550781,0.0,,41.98014450073242,41.98014450073242,0.0,,4.0
5,0,3,0,social,avoidloss,social_avoidloss,3,Play to AVOID LOSING points

for the NEXT PARTICIPANT,5,stimuli/tunga_08.bmp,-1,stimuli/tunga_11.bmp,0,1,11,8,stimuli/tunga_11.bmp,stimuli/tunga_08.bmp,stimuli/tunga_11.bmp,left,1.0,44.49245401000062,,45.46171569824219,45.46171569824219,0.0,,46.47374725341797,46.47374725341797,0.0,,45.974151611328125,45.974151611328125,0.0,,1.0,1.0,0.0,'left',0.4462724030017853,0.4462724030017853,0.0,44.9925537109375,44.9925537109375,0.0,,44.9925537109375,44.9925537109375,0.0,,45.46171569824219,45.46171569824219,0.0,,44.9925537109375,44.9925537109375,0.0,,45.46171569824219,45.46171569824219,0.0,,5.0
6,0,3,0,social,avoidloss,social_avoidloss,3,Play to AVOID LOSING points

for the NEXT PARTICIPANT,6,stimuli/tunga_08.bmp,-1,stimuli/tunga_11.bmp,0,0,8,11,stimuli/tunga_08.bmp,stimuli/tunga_11.bmp,stimuli/tunga_11.bmp,right,1.0,47.98873021000018,,48.85573196411133,48.85573196411133,0.0,,49.869728088378906,49.869728088378906,0.0,,49.37012481689453,49.37012481689453,0.0,,1.0,1.0,0.0,'right',0.34831181168556213,0.34831181168556213,0.0,48.488460540771484,48.488460540771484,0.0,,48.488460540771484,48.488460540771484,0.0,,48.85573196411133,48.85573196411133,0.0,,48.488460540771484,48.488460540771484,0.0,,48.85573196411133,48.85573196411133,0.0,,6.0
7,0,3,0,social,avoidloss,social_avoidloss,3,Play to AVOID LOSING points

for the NEXT PARTICIPANT,7,stimuli/tunga_08.bmp,-1,stimuli/tunga_11.bmp,0,0,8,11,stimuli/tunga_08.bmp,stimuli/tunga_11.bmp,stimuli/tunga_11.bmp,right,1.0,51.38459151000061,,52.33620834350586,52.33620834350586,0.0,,53.349090576171875,53.349090576171875,0.0,,52.849281311035156,52.849281311035156,0.0,,1.0,1.0,0.0,'right',0.42464640736579895,0.42464640736579895,0.0,51.88447189331055,51.88447189331055,0.0,,51.88447189331055,51.88447189331055,0.0,,52.33620834350586,52.33620834350586,0.0,,51.88447189331055,51.88447189331055,0.0,,52.33620834350586,52.33620834350586,0.0,,7.0
8,0,3,0,social,avoidloss,social_avoidloss,3,Play to AVOID LOSING points

for the NEXT PARTICIPANT,8,stimuli/tunga_08.bmp,-1,stimuli/tunga_11.bmp,0,0,8,11,stimuli/tunga_08.bmp,stimuli/tunga_11.bmp,stimuli/tunga_11.bmp,right,1.0,54.86387811000041,,55.86567687988281,55.86567687988281,0.0,,56.878475189208984,56.878475189208984,0.0,,56.37887191772461,56.37887191772461,0.0,,1.0,1.0,0.0,'right',0.468349814414978,0.468349814414978,0.0,55.36372375488281,55.36372375488281,0.0,,55.36372375488281,55.36372375488281,0.0,,55.86567687988281,55.86567687988281,0.0,,55.36372375488281,55.36372375488281,0.0,,55.86567687988281,55.86567687988281,0.0,,8.0
9,0,3,0,social,avoidloss,social_avoidloss,3,Play to AVOID LOSING points

for the NEXT PARTICIPANT,9,stimuli/tunga_08.bmp,0,stimuli/tunga_11.bmp,-1,1,11,8,stimuli/tunga_11.bmp,stimuli/tunga_08.bmp,stimuli/tunga_08.bmp,right,1.0,58.39314541000076,,59.65959930419922,59.65959930419922,0.0,,60.65705108642578,60.65705108642578,0.0,,60.15762710571289,60.15762710571289,0.0,,0.0,0.0,0.0,'left',0.7459930777549744,0.7459930777549744,0.0,58.893035888671875,58.893035888671875,0.0,,58.893035888671875,58.893035888671875,0.0,,59.65959930419922,59.65959930419922,0.0,,58.893035888671875,58.893035888671875,0.0,,59.65959930419922,59.65959930419922,0.0,,9.0
10,0,3,0,social,avoidloss,social_avoidloss,3,Play to AVOID LOSING points

for the NEXT PARTICIPANT,10,stimuli/tunga_08.bmp,-1,stimuli/tunga_11.bmp,0,1,11,8,stimuli/tunga_11.bmp,stimuli/tunga_08.bmp,stimuli/tunga_11.bmp,left,1.0,62.172204810000586,,63.074790954589844,63.074790954589844,0.0,,64.08672332763672,64.08672332763672,0.0,,63.58717727661133,63.58717727661133,0.0,,0.0,0.0,0.0,'right',0.3818052113056183,0.3818052113056183,0.0,62.67201614379883,62.67201614379883,0.0,,62.67201614379883,62.67201614379883,0.0,,63.074790954589844,63.074790954589844,0.0,,62.67201614379883,62.67201614379883,0.0,,63.074790954589844,63.074790954589844,0.0,,10.0
11,0,3,0,social,avoidloss,social_avoidloss,3,Play to AVOID LOSING points

for the NEXT PARTICIPANT,11,stimuli/tunga_08.bmp,-1,stimuli/tunga_11.bmp,0,0,8,11,stimuli/tunga_08.bmp,stimuli/tunga_11.bmp,stimuli/tunga_11.bmp,right,1.0,65.60153201000011,,66.70137786865234,66.70137786865234,0.0,,67.70088958740234,67.70088958740234,0.0,,67.19962310791016,67.19962310791016,0.0,,1.0,1.0,0.0,'right',0.5688809156417847,0.5688809156417847,0.0,66.10124206542969,66.10124206542969,0.0,,66.10124206542969,66.10124206542969,0.0,,66.70137786865234,66.70137786865234,0.0,,66.10124206542969,66.10124206542969,0.0,,66.70137786865234,66.70137786865234,0.0,,11.0
12,0,3,0,social,avoidloss,social_avoidloss,3,Play to AVOID LOSING points

for the NEXT PARTICIPANT,12,stimuli/tunga_08.bmp,0,stimuli/tunga_11.bmp,-1,1,11,8,stimuli/tunga_11.bmp,stimuli/tunga_08.bmp,stimuli/tunga_08.bmp,right,1.0,69.21402541000006,,70.23278045654297,70.23278045654297,0.0,,71.24739837646484,71.24739837646484,0.0,,70.74530029296875,70.74530029296875,0.0,,0.0,0.0,0.0,'left',0.499103307723999,0.499103307723999,0.0,69.7138671875,69.7138671875,0.0,,69.7138671875,69.7138671875,0.0,,70.23278045654297,70.23278045654297,0.0,,69.7138671875,69.7138671875,0.0,,70.23278045654297,70.23278045654297,0.0,,12.0
13,0,3,0,social,avoidloss,social_avoidloss,3,Play to AVOID LOSING points

for the NEXT PARTICIPANT,13,stimuli/tunga_08.bmp,-1,stimuli/tunga_11.bmp,0,0,8,11,stimuli/tunga_08.bmp,stimuli/tunga_11.bmp,stimuli/tunga_11.bmp,right,1.0,72.76004711000004,,73.62664794921875,73.62664794921875,0.0,,74.62466430664062,74.62466430664062,0.0,,74.12462615966797,74.12462615966797,0.0,,1.0,1.0,0.0,'right',0.3407807946205139,0.3407807946205139,0.0,73.25984954833984,73.25984954833984,0.0,,73.25984954833984,73.25984954833984,0.0,,73.62664794921875,73.62664794921875,0.0,,73.25984954833984,73.25984954833984,0.0,,73.62664794921875,73.62664794921875,0.0,,13.0
14,0,3,0,social,avoidloss,social_avoidloss,3,Play to AVOID LOSING points

for the NEXT PARTICIPANT,14,stimuli/tunga_08.bmp,-1,stimuli/tunga_11.bmp,0,1,11,8,stimuli/tunga_11.bmp,stimuli/tunga_08.bmp,stimuli/tunga_11.bmp,left,1.0,76.13918350999992,,77.09119415283203,77.09119415283203,0.0,,78.1036605834961,78.1036605834961,0.0,,77.6039810180664,77.6039810180664,0.0,,1.0,1.0,0.0,'left',0.4257569909095764,0.4257569909095764,0.0,76.63917541503906,76.63917541503906,0.0,,76.63917541503906,76.63917541503906,0.0,,77.09119415283203,77.09119415283203,0.0,,76.63917541503906,76.63917541503906,0.0,,77.09119415283203,77.09119415283203,0.0,,14.0
15,0,3,0,social,avoidloss,social_avoidloss,3,Play to AVOID LOSING points

for the NEXT PARTICIPANT,15,stimuli/tunga_08.bmp,0,stimuli/tunga_11.bmp,-1,0,8,11,stimuli/tunga_08.bmp,stimuli/tunga_11.bmp,stimuli/tunga_08.bmp,left,1.0,79.61860361000035,,80.4854965209961,80.4854965209961,0.0,,81.48704528808594,81.48704528808594,0.0,,80.98351287841797,80.98351287841797,0.0,,0.0,0.0,0.0,'right',0.3491226136684418,0.3491226136684418,0.0,80.11858367919922,80.11858367919922,0.0,,80.11858367919922,80.11858367919922,0.0,,80.4854965209961,80.4854965209961,0.0,,80.11858367919922,80.11858367919922,0.0,,80.4854965209961,80.4854965209961,0.0,,15.0
16,0,3,0,social,avoidloss,social_avoidloss,3,Play to AVOID LOSING points

for the NEXT PARTICIPANT,16,stimuli/tunga_08.bmp,0,stimuli/tunga_11.bmp,-1,1,11,8,stimuli/tunga_11.bmp,stimuli/tunga_08.bmp,stimuli/tunga_08.bmp,right,1.0,82.99801711000018,,83.99810028076172,83.99810028076172,0.0,,84.99571228027344,84.99571228027344,0.0,,84.49606323242188,84.49606323242188,0.0,,0.0,0.0,0.0,'left',0.47280970215797424,0.47280970215797424,0.0,83.49810028076172,83.49810028076172,0.0,,83.49810028076172,83.49810028076172,0.0,,83.99810028076172,83.99810028076172,0.0,,83.49810028076172,83.49810028076172,0.0,,83.99810028076172,83.99810028076172,0.0,,16.0
17,0,3,0,social,avoidloss,social_avoidloss,3,Play to AVOID LOSING points

for the NEXT PARTICIPANT,17,stimuli/tunga_08.bmp,-1,stimuli/tunga_11.bmp,0,1,11,8,stimuli/tunga_11.bmp,stimuli/tunga_08.bmp,stimuli/tunga_11.bmp,left,1.0,86.51084791000048,,87.67730712890625,87.67730712890625,0.0,,88.67574310302734,88.67574310302734,0.0,,88.17507934570312,88.17507934570312,0.0,,1.0,1.0,0.0,'left',0.634329080581665,0.634329080581665,0.0,87.01289367675781,87.01289367675781,0.0,,87.01289367675781,87.01289367675781,0.0,,87.67730712890625,87.67730712890625,0.0,,87.01289367675781,87.01289367675781,0.0,,87.67730712890625,87.67730712890625,0.0,,17.0
18,0,3,0,social,avoidloss,social_avoidloss,3,Play to AVOID LOSING points

for the NEXT PARTICIPANT,18,stimuli/tunga_08.bmp,-1,stimuli/tunga_11.bmp,0,0,8,11,stimuli/tunga_08.bmp,stimuli/tunga_11.bmp,stimuli/tunga_11.bmp,right,1.0,90.18967020999989,,91.25628662109375,91.25628662109375,0.0,,92.25396728515625,92.25396728515625,0.0,,91.75464630126953,91.75464630126953,0.0,,1.0,1.0,0.0,'right',0.5359371900558472,0.5359371900558472,0.0,90.68973541259766,90.68973541259766,0.0,,90.68973541259766,90.68973541259766,0.0,,91.25628662109375,91.25628662109375,0.0,,90.68973541259766,90.68973541259766,0.0,,91.25628662109375,91.25628662109375,0.0,,18.0
19,0,3,0,social,avoidloss,social_avoidloss,3,Play to AVOID LOSING points

for the NEXT PARTICIPANT,19,stimuli/tunga_08.bmp,-1,stimuli/tunga_11.bmp,0,1,11,8,stimuli/tunga_11.bmp,stimuli/tunga_08.bmp,stimuli/tunga_11.bmp,left,1.0,93.76912501000024,,94.77227020263672,94.77227020263672,0.0,,95.78350830078125,95.78350830078125,0.0,,95.28368377685547,95.28368377685547,0.0,,1.0,1.0,0.0,'left',0.4798130989074707,0.4798130989074707,0.0,94.26896667480469,94.26896667480469,0.0,,94.26896667480469,94.26896667480469,0.0,,94.77227020263672,94.77227020263672,0.0,,94.26896667480469,94.26896667480469,0.0,,94.77227020263672,94.77227020263672,0.0,,19.0
20,0,3,0,social,avoidloss,social_avoidloss,3,Play to AVOID LOSING points

for the NEXT PARTICIPANT,20,stimuli/tunga_08.bmp,0,stimuli/tunga_11.bmp,-1,0,8,11,stimuli/tunga_08.bmp,stimuli/tunga_11.bmp,stimuli/tunga_08.bmp,left,1.0,97.29825421000041,,98.29867553710938,98.29867553710938,0.0,,99.31233978271484,99.31233978271484,0.0,,98.81300354003906,98.81300354003906,0.0,,0.0,0.0,0.0,'right',0.46855029463768005,0.46855029463768005,0.0,97.7979507446289,97.7979507446289,0.0,,97.7979507446289,97.7979507446289,0.0,,98.29867553710938,98.29867553710938,0.0,,97.7979507446289,97.7979507446289,0.0,,98.29867553710938,98.29867553710938,0.0,,20.0
21,0,3,0,social,avoidloss,social_avoidloss,3,Play to AVOID LOSING points

for the NEXT PARTICIPANT,21,stimuli/tunga_08.bmp,-1,stimuli/tunga_11.bmp,0,0,8,11,stimuli/tunga_08.bmp,stimuli/tunga_11.bmp,stimuli/tunga_11.bmp,right,1.0,100.82764680999989,,101.7289047241211,101.7289047241211,0.0,,102.74490356445312,102.74490356445312,0.0,,102.24227905273438,102.24227905273438,0.0,,1.0,1.0,0.0,'right',0.3773210048675537,0.3773210048675537,0.0,101.32723236083984,101.32723236083984,0.0,,101.32723236083984,101.32723236083984,0.0,,101.7289047241211,101.7289047241211,0.0,,101.32723236083984,101.32723236083984,0.0,,101.7289047241211,101.7289047241211,0.0,,21.0
22,0,3,0,social,avoidloss,social_avoidloss,3,Play to AVOID LOSING points

for the NEXT PARTICIPANT,22,stimuli/tunga_08.bmp,-1,stimuli/tunga_11.bmp,0,1,11,8,stimuli/tunga_11.bmp,stimuli/tunga_08.bmp,stimuli/tunga_11.bmp,left,1.0,104.25683211000032,,105.27486419677734,105.27486419677734,0.0,,106.2877426147461,106.2877426147461,0.0,,105.7880630493164,105.7880630493164,0.0,,1.0,1.0,0.0,'left',0.49092400074005127,0.49092400074005127,0.0,104.7565689086914,104.7565689086914,0.0,,104.7565689086914,104.7565689086914,0.0,,105.27486419677734,105.27486419677734,0.0,,104.7565689086914,104.7565689086914,0.0,,105.27486419677734,105.27486419677734,0.0,,22.0
23,0,3,0,social,avoidloss,social_avoidloss,3,Play to AVOID LOSING points

for the NEXT PARTICIPANT,23,stimuli/tunga_08.bmp,-1,stimuli/tunga_11.bmp,0,1,11,8,stimuli/tunga_11.bmp,stimuli/tunga_08.bmp,stimuli/tunga_11.bmp,left,1.0,107.80265851000021,,108.70808410644531,108.70808410644531,0.0,,109.71713256835938,109.71713256835938,0.0,,109.21770477294922,109.21770477294922,0.0,,1.0,1.0,0.0,'left',0.3784751892089844,0.3784751892089844,0.0,108.30233764648438,108.30233764648438,0.0,,108.30233764648438,108.30233764648438,0.0,,108.70808410644531,108.70808410644531,0.0,,108.30233764648438,108.30233764648438,0.0,,108.70808410644531,108.70808410644531,0.0,,23.0
24,0,3,0,self,avoidloss,self_avoidloss,2,Play to AVOID LOSING points

for YOURSELF,0,stimuli/tunga_12.bmp,-1,stimuli/tunga_04.bmp,0,0,12,4,stimuli/tunga_12.bmp,stimuli/tunga_04.bmp,stimuli/tunga_04.bmp,right,1.0,111.24001670000052,,117.29541778564453,117.29541778564453,0.0,,118.3140869140625,118.3140869140625,0.0,,117.80767822265625,117.80767822265625,0.0,,0.0,0.0,0.0,'left',0.5148178935050964,0.5148178935050964,0.0,116.74968719482422,116.74968719482422,0.0,,116.74968719482422,116.74968719482422,0.0,,117.29541778564453,117.29541778564453,0.0,,116.74968719482422,116.74968719482422,0.0,,117.29541778564453,117.29541778564453,0.0,,24.0
25,0,3,0,self,avoidloss,self_avoidloss,2,Play to AVOID LOSING points

for YOURSELF,1,stimuli/tunga_12.bmp,-1,stimuli/tunga_04.bmp,0,0,12,4,stimuli/tunga_12.bmp,stimuli/tunga_04.bmp,stimuli/tunga_04.bmp,right,1.0,119.82191271000065,,120.92224884033203,120.92224884033203,0.0,,121.92369842529297,121.92369842529297,0.0,,121.4200668334961,121.4200668334961,0.0,,1.0,1.0,0.0,'right',0.575878381729126,0.575878381729126,0.0,120.32199096679688,120.32199096679688,0.0,,120.32199096679688,120.32199096679688,0.0,,120.92224884033203,120.92224884033203,0.0,,120.32199096679688,120.32199096679688,0.0,,120.92224884033203,120.92224884033203,0.0,,25.0
26,0,3,0,self,avoidloss,self_avoidloss,2,Play to AVOID LOSING points

for YOURSELF,2,stimuli/tunga_12.bmp,-1,stimuli/tunga_04.bmp,0,1,4,12,stimuli/tunga_04.bmp,stimuli/tunga_12.bmp,stimuli/tunga_04.bmp,left,1.0,123.43463651000056,,124.43624877929688,124.43624877929688,0.0,,125.44903564453125,125.44903564453125,0.0,,124.94943237304688,124.94943237304688,0.0,,1.0,1.0,0.0,'left',0.4749644100666046,0.4749644100666046,0.0,123.93437194824219,123.93437194824219,0.0,,123.93437194824219,123.93437194824219,0.0,,124.43624877929688,124.43624877929688,0.0,,123.93437194824219,123.93437194824219,0.0,,124.43624877929688,124.43624877929688,0.0,,26.0
27,0,3,0,self,avoidloss,self_avoidloss,2,Play to AVOID LOSING points

for YOURSELF,3,stimuli/tunga_12.bmp,-1,stimuli/tunga_04.bmp,0,1,4,12,stimuli/tunga_04.bmp,stimuli/tunga_12.bmp,stimuli/tunga_04.bmp,left,1.0,126.96383431000012,,127.96477508544922,127.96477508544922,0.0,,128.978271484375,128.978271484375,0.0,,128.4788360595703,128.4788360595703,0.0,,1.0,1.0,0.0,'left',0.4696978032588959,0.4696978032588959,0.0,127.46392059326172,127.46392059326172,0.0,,127.46392059326172,127.46392059326172,0.0,,127.96477508544922,127.96477508544922,0.0,,127.46392059326172,127.46392059326172,0.0,,127.96477508544922,127.96477508544922,0.0,,27.0
28,0,3,0,self,avoidloss,self_avoidloss,2,Play to AVOID LOSING points

for YOURSELF,4,stimuli/tunga_12.bmp,0,stimuli/tunga_04.bmp,-1,0,12,4,stimuli/tunga_12.bmp,stimuli/tunga_04.bmp,stimuli/tunga_12.bmp,left,1.0,130.49297281000017,,131.461669921875,131.461669921875,0.0,,132.4765625,132.4765625,0.0,,131.9744415283203,131.9744415283203,0.0,,0.0,0.0,0.0,'right',0.44570308923721313,0.44570308923721313,0.0,130.99310302734375,130.99310302734375,0.0,,130.99310302734375,130.99310302734375,0.0,,131.461669921875,131.461669921875,0.0,,130.99310302734375,130.99310302734375,0.0,,131.461669921875,131.461669921875,0.0,,28.0
29,0,3,0,self,avoidloss,self_avoidloss,2,Play to AVOID LOSING points

for YOURSELF,5,stimuli/tunga_12.bmp,-1,stimuli/tunga_04.bmp,0,0,12,4,stimuli/tunga_12.bmp,stimuli/tunga_04.bmp,stimuli/tunga_04.bmp,right,1.0,133.98894910999988,,134.9571533203125,134.9571533203125,0.0,,135.9716339111328,135.9716339111328,0.0,,135.4705047607422,135.4705047607422,0.0,,1.0,1.0,0.0,'right',0.4458521008491516,0.4458521008491516,0.0,134.48887634277344,134.48887634277344,0.0,,134.48887634277344,134.48887634277344,0.0,,134.9571533203125,134.9571533203125,0.0,,134.48887634277344,134.48887634277344,0.0,,134.9571533203125,134.9571533203125,0.0,,29.0
30,0,3,0,self,avoidloss,self_avoidloss,2,Play to AVOID LOSING points

for YOURSELF,6,stimuli/tunga_12.bmp,-1,stimuli/tunga_04.bmp,0,0,12,4,stimuli/tunga_12.bmp,stimuli/tunga_04.bmp,stimuli/tunga_04.bmp,right,1.0,137.48486061000003,,138.35476684570312,138.35476684570312,0.0,,139.3661651611328,139.3661651611328,0.0,,138.86660766601562,138.86660766601562,0.0,,1.0,1.0,0.0,'right',0.3375732898712158,0.3375732898712158,0.0,137.98495483398438,137.98495483398438,0.0,,137.98495483398438,137.98495483398438,0.0,,138.35476684570312,138.35476684570312,0.0,,137.98495483398438,137.98495483398438,0.0,,138.35476684570312,138.35476684570312,0.0,,30.0
31,0,3,0,self,avoidloss,self_avoidloss,2,Play to AVOID LOSING points

for YOURSELF,7,stimuli/tunga_12.bmp,-1,stimuli/tunga_04.bmp,0,1,4,12,stimuli/tunga_04.bmp,stimuli/tunga_12.bmp,stimuli/tunga_04.bmp,left,1.0,140.8809302100004,,141.74794006347656,141.74794006347656,0.0,,142.7455596923828,142.7455596923828,0.0,,142.24594116210938,142.24594116210938,0.0,,1.0,1.0,0.0,'left',0.3377039134502411,0.3377039134502411,0.0,141.38101196289062,141.38101196289062,0.0,,141.38101196289062,141.38101196289062,0.0,,141.74794006347656,141.74794006347656,0.0,,141.38101196289062,141.38101196289062,0.0,,141.74794006347656,141.74794006347656,0.0,,31.0
32,0,3,0,self,avoidloss,self_avoidloss,2,Play to AVOID LOSING points

for YOURSELF,8,stimuli/tunga_12.bmp,-1,stimuli/tunga_04.bmp,0,1,4,12,stimuli/tunga_04.bmp,stimuli/tunga_12.bmp,stimuli/tunga_04.bmp,left,1.0,144.26062201000022,,145.28013610839844,145.28013610839844,0.0,,146.29144287109375,146.29144287109375,0.0,,145.7919921875,145.7919921875,0.0,,1.0,1.0,0.0,'left',0.49640750885009766,0.49640750885009766,0.0,144.76036071777344,144.76036071777344,0.0,,144.76036071777344,144.76036071777344,0.0,,145.28013610839844,145.28013610839844,0.0,,144.76036071777344,144.76036071777344,0.0,,145.28013610839844,145.28013610839844,0.0,,32.0
33,0,3,0,self,avoidloss,self_avoidloss,2,Play to AVOID LOSING points

for YOURSELF,9,stimuli/tunga_12.bmp,0,stimuli/tunga_04.bmp,-1,1,4,12,stimuli/tunga_04.bmp,stimuli/tunga_12.bmp,stimuli/tunga_12.bmp,right,1.0,147.80629671000005,,148.689697265625,148.689697265625,0.0,,149.6875,149.6875,0.0,,149.18821716308594,149.18821716308594,0.0,,0.0,0.0,0.0,'left',0.3629001975059509,0.3629001975059509,0.0,148.30633544921875,148.30633544921875,0.0,,148.30633544921875,148.30633544921875,0.0,,148.689697265625,148.689697265625,0.0,,148.30633544921875,148.30633544921875,0.0,,148.689697265625,148.689697265625,0.0,,33.0
34,0,3,0,self,avoidloss,self_avoidloss,2,Play to AVOID LOSING points

for YOURSELF,10,stimuli/tunga_12.bmp,-1,stimuli/tunga_04.bmp,0,1,4,12,stimuli/tunga_04.bmp,stimuli/tunga_12.bmp,stimuli/tunga_04.bmp,left,1.0,151.20237081000013,,152.18801879882812,152.18801879882812,0.0,,153.20033264160156,153.20033264160156,0.0,,152.70053100585938,152.70053100585938,0.0,,0.0,0.0,0.0,'right',0.44373270869255066,0.44373270869255066,0.0,151.7189483642578,151.7189483642578,0.0,,151.7189483642578,151.7189483642578,0.0,,152.18801879882812,152.18801879882812,0.0,,151.7189483642578,151.7189483642578,0.0,,152.18801879882812,152.18801879882812,0.0,,34.0
35,0,3,0,self,avoidloss,self_avoidloss,2,Play to AVOID LOSING points

for YOURSELF,11,stimuli/tunga_12.bmp,-1,stimuli/tunga_04.bmp,0,0,12,4,stimuli/tunga_12.bmp,stimuli/tunga_04.bmp,stimuli/tunga_04.bmp,right,1.0,154.71526731000048,,155.78175354003906,155.78175354003906,0.0,,156.77906799316406,156.77906799316406,0.0,,156.27984619140625,156.27984619140625,0.0,,1.0,1.0,0.0,'right',0.5353987812995911,0.5353987812995911,0.0,155.2149200439453,155.2149200439453,0.0,,155.2149200439453,155.2149200439453,0.0,,155.78175354003906,155.78175354003906,0.0,,155.2149200439453,155.2149200439453,0.0,,155.78175354003906,155.78175354003906,0.0,,35.0
36,0,3,0,self,avoidloss,self_avoidloss,2,Play to AVOID LOSING points

for YOURSELF,12,stimuli/tunga_12.bmp,-1,stimuli/tunga_04.bmp,0,0,12,4,stimuli/tunga_12.bmp,stimuli/tunga_04.bmp,stimuli/tunga_04.bmp,right,1.0,158.29434871000066,,159.17825317382812,159.17825317382812,0.0,,160.19216918945312,160.19216918945312,0.0,,159.69248962402344,159.69248962402344,0.0,,1.0,1.0,0.0,'right',0.36062538623809814,0.36062538623809814,0.0,158.79420471191406,158.79420471191406,0.0,,158.79420471191406,158.79420471191406,0.0,,159.17825317382812,159.17825317382812,0.0,,158.79420471191406,158.79420471191406,0.0,,159.17825317382812,159.17825317382812,0.0,,36.0
37,0,3,0,self,avoidloss,self_avoidloss,2,Play to AVOID LOSING points

for YOURSELF,13,stimuli/tunga_12.bmp,0,stimuli/tunga_04.bmp,-1,0,12,4,stimuli/tunga_12.bmp,stimuli/tunga_04.bmp,stimuli/tunga_12.bmp,left,1.0,161.70699291000037,,162.64442443847656,162.64442443847656,0.0,,163.65908813476562,163.65908813476562,0.0,,163.15512084960938,163.15512084960938,0.0,,0.0,0.0,0.0,'right',0.4151952862739563,0.4151952862739563,0.0,162.20701599121094,162.20701599121094,0.0,,162.20701599121094,162.20701599121094,0.0,,162.64442443847656,162.64442443847656,0.0,,162.20701599121094,162.20701599121094,0.0,,162.64442443847656,162.64442443847656,0.0,,37.0
38,0,3,0,self,avoidloss,self_avoidloss,2,Play to AVOID LOSING points

for YOURSELF,14,stimuli/tunga_12.bmp,0,stimuli/tunga_04.bmp,-1,1,4,12,stimuli/tunga_04.bmp,stimuli/tunga_12.bmp,stimuli/tunga_12.bmp,right,1.0,165.16962791000023,,166.35438537597656,166.35438537597656,0.0,,167.3670196533203,167.3670196533203,0.0,,166.86764526367188,166.86764526367188,0.0,,0.0,0.0,0.0,'left',0.6651285290718079,0.6651285290718079,0.0,165.66986083984375,165.66986083984375,0.0,,165.66986083984375,165.66986083984375,0.0,,166.35438537597656,166.35438537597656,0.0,,165.66986083984375,165.66986083984375,0.0,,166.35438537597656,166.35438537597656,0.0,,38.0
39,0,3,0,self,avoidloss,self_avoidloss,2,Play to AVOID LOSING points

for YOURSELF,15,stimuli/tunga_12.bmp,0,stimuli/tunga_04.bmp,-1,1,4,12,stimuli/tunga_04.bmp,stimuli/tunga_12.bmp,stimuli/tunga_12.bmp,right,1.0,168.88205981000064,,169.81710815429688,169.81710815429688,0.0,,170.82960510253906,170.82960510253906,0.0,,170.33018493652344,170.33018493652344,0.0,,1.0,1.0,0.0,'right',0.4089694917201996,0.4089694917201996,0.0,169.38189697265625,169.38189697265625,0.0,,169.38189697265625,169.38189697265625,0.0,,169.81710815429688,169.81710815429688,0.0,,169.38189697265625,169.38189697265625,0.0,,169.81710815429688,169.81710815429688,0.0,,39.0
40,0,3,0,self,avoidloss,self_avoidloss,2,Play to AVOID LOSING points

for YOURSELF,16,stimuli/tunga_12.bmp,-1,stimuli/tunga_04.bmp,0,0,12,4,stimuli/tunga_12.bmp,stimuli/tunga_04.bmp,stimuli/tunga_04.bmp,right,1.0,172.34479791000066,,173.3948516845703,173.3948516845703,0.0,,174.3989715576172,174.3989715576172,0.0,,173.89303588867188,173.89303588867188,0.0,,0.0,0.0,0.0,'left',0.5085682272911072,0.5085682272911072,0.0,172.86119079589844,172.86119079589844,0.0,,172.86119079589844,172.86119079589844,0.0,,173.3948516845703,173.3948516845703,0.0,,172.86119079589844,172.86119079589844,0.0,,173.3948516845703,173.3948516845703,0.0,,40.0
41,0,3,0,self,avoidloss,self_avoidloss,2,Play to AVOID LOSING points

for YOURSELF,17,stimuli/tunga_12.bmp,-1,stimuli/tunga_04.bmp,0,0,12,4,stimuli/tunga_12.bmp,stimuli/tunga_04.bmp,stimuli/tunga_04.bmp,right,1.0,175.90718261000038,,176.84286499023438,176.84286499023438,0.0,,177.8549346923828,177.8549346923828,0.0,,177.3553924560547,177.3553924560547,0.0,,1.0,1.0,0.0,'right',0.4122394919395447,0.4122394919395447,0.0,176.4071502685547,176.4071502685547,0.0,,176.4071502685547,176.4071502685547,0.0,,176.84286499023438,176.84286499023438,0.0,,176.4071502685547,176.4071502685547,0.0,,176.84286499023438,176.84286499023438,0.0,,41.0
42,0,3,0,self,avoidloss,self_avoidloss,2,Play to AVOID LOSING points

for YOURSELF,18,stimuli/tunga_12.bmp,-1,stimuli/tunga_04.bmp,0,0,12,4,stimuli/tunga_12.bmp,stimuli/tunga_04.bmp,stimuli/tunga_04.bmp,right,1.0,179.37010011000038,,180.28704833984375,180.28704833984375,0.0,,181.3009796142578,181.3009796142578,0.0,,180.80145263671875,180.80145263671875,0.0,,1.0,1.0,0.0,'right',0.3967894911766052,0.3967894911766052,0.0,179.87002563476562,179.87002563476562,0.0,,179.87002563476562,179.87002563476562,0.0,,180.28704833984375,180.28704833984375,0.0,,179.87002563476562,179.87002563476562,0.0,,180.28704833984375,180.28704833984375,0.0,,42.0
43,0,3,0,self,avoidloss,self_avoidloss,2,Play to AVOID LOSING points

for YOURSELF,19,stimuli/tunga_12.bmp,-1,stimuli/tunga_04.bmp,0,1,4,12,stimuli/tunga_04.bmp,stimuli/tunga_12.bmp,stimuli/tunga_04.bmp,left,1.0,182.8160947100001,,183.78363037109375,183.78363037109375,0.0,,184.79702758789062,184.79702758789062,0.0,,184.2974853515625,184.2974853515625,0.0,,1.0,1.0,0.0,'left',0.4428859055042267,0.4428859055042267,0.0,183.3158416748047,183.3158416748047,0.0,,183.3158416748047,183.3158416748047,0.0,,183.78363037109375,183.78363037109375,0.0,,183.3158416748047,183.3158416748047,0.0,,183.78363037109375,183.78363037109375,0.0,,43.0
44,0,3,0,self,avoidloss,self_avoidloss,2,Play to AVOID LOSING points

for YOURSELF,20,stimuli/tunga_12.bmp,-1,stimuli/tunga_04.bmp,0,1,4,12,stimuli/tunga_04.bmp,stimuli/tunga_12.bmp,stimuli/tunga_04.bmp,left,1.0,186.31187261000068,,187.27952575683594,187.27952575683594,0.0,,188.29307556152344,188.29307556152344,0.0,,187.7932586669922,187.7932586669922,0.0,,1.0,1.0,0.0,'left',0.4446429908275604,0.4446429908275604,0.0,186.81202697753906,186.81202697753906,0.0,,186.81202697753906,186.81202697753906,0.0,,187.27952575683594,187.27952575683594,0.0,,186.81202697753906,186.81202697753906,0.0,,187.27952575683594,187.27952575683594,0.0,,44.0
45,0,3,0,self,avoidloss,self_avoidloss,2,Play to AVOID LOSING points

for YOURSELF,21,stimuli/tunga_12.bmp,-1,stimuli/tunga_04.bmp,0,1,4,12,stimuli/tunga_04.bmp,stimuli/tunga_12.bmp,stimuli/tunga_04.bmp,left,1.0,189.8078921100001,,190.8596954345703,190.8596954345703,0.0,,191.8723907470703,191.8723907470703,0.0,,191.37281799316406,191.37281799316406,0.0,,1.0,1.0,0.0,'left',0.5176600813865662,0.5176600813865662,0.0,190.30783081054688,190.30783081054688,0.0,,190.30783081054688,190.30783081054688,0.0,,190.8596954345703,190.8596954345703,0.0,,190.30783081054688,190.30783081054688,0.0,,190.8596954345703,190.8596954345703,0.0,,45.0
46,0,3,0,self,avoidloss,self_avoidloss,2,Play to AVOID LOSING points

for YOURSELF,22,stimuli/tunga_12.bmp,0,stimuli/tunga_04.bmp,-1,1,4,12,stimuli/tunga_04.bmp,stimuli/tunga_12.bmp,stimuli/tunga_12.bmp,right,1.0,193.38704810999988,,194.3392791748047,194.3392791748047,0.0,,195.35231018066406,195.35231018066406,0.0,,194.851806640625,194.851806640625,0.0,,0.0,0.0,0.0,'left',0.4300228953361511,0.4300228953361511,0.0,193.88694763183594,193.88694763183594,0.0,,193.88694763183594,193.88694763183594,0.0,,194.3392791748047,194.3392791748047,0.0,,193.88694763183594,193.88694763183594,0.0,,194.3392791748047,194.3392791748047,0.0,,46.0
47,0,3,0,self,avoidloss,self_avoidloss,2,Play to AVOID LOSING points

for YOURSELF,23,stimuli/tunga_12.bmp,-1,stimuli/tunga_04.bmp,0,0,12,4,stimuli/tunga_12.bmp,stimuli/tunga_04.bmp,stimuli/tunga_04.bmp,right,1.0,196.86629950999995,,197.90386962890625,197.90386962890625,0.0,,198.91387939453125,198.91387939453125,0.0,,198.41464233398438,198.41464233398438,0.0,,0.0,0.0,0.0,'left',0.5153056979179382,0.5153056979179382,0.0,197.36636352539062,197.36636352539062,0.0,,197.36636352539062,197.36636352539062,0.0,,197.90386962890625,197.90386962890625,0.0,,197.36636352539062,197.36636352539062,0.0,,197.90386962890625,197.90386962890625,0.0,,47.0
48,0,3,0,social,win,social_win,1,Play to WIN points

for the NEXT PARTICIPANT,0,stimuli/tunga_10.bmp,1,stimuli/tunga_05.bmp,0,1,5,10,stimuli/tunga_05.bmp,stimuli/tunga_10.bmp,stimuli/tunga_10.bmp,right,1.0,200.43994310000016,,206.2745361328125,206.2745361328125,0.0,,207.2878875732422,207.2878875732422,0.0,,206.78814697265625,206.78814697265625,0.0,,0.0,0.0,0.0,'left',0.2958660125732422,0.2958660125732422,0.0,205.96034240722656,205.96034240722656,0.0,,205.96034240722656,205.96034240722656,0.0,,206.2745361328125,206.2745361328125,0.0,,205.96034240722656,205.96034240722656,0.0,,206.2745361328125,206.2745361328125,0.0,,48.0
49,0,3,0,social,win,social_win,1,Play to WIN points

for the NEXT PARTICIPANT,1,stimuli/tunga_10.bmp,1,stimuli/tunga_05.bmp,0,0,10,5,stimuli/tunga_10.bmp,stimuli/tunga_05.bmp,stimuli/tunga_10.bmp,left,1.0,208.8025293100005,,210.21922302246094,210.21922302246094,0.0,,211.2376708984375,211.2376708984375,0.0,,210.73365783691406,210.73365783691406,0.0,,1.0,1.0,0.0,'left',0.8913878798484802,0.8913878798484802,0.0,209.30259704589844,209.30259704589844,0.0,,209.30259704589844,209.30259704589844,0.0,,210.21922302246094,210.21922302246094,0.0,,209.30259704589844,209.30259704589844,0.0,,210.21922302246094,210.21922302246094,0.0,,49.0
50,0,3,0,social,win,social_win,1,Play to WIN points

for the NEXT PARTICIPANT,2,stimuli/tunga_10.bmp,1,stimuli/tunga_05.bmp,0,1,5,10,stimuli/tunga_05.bmp,stimuli/tunga_10.bmp,stimuli/tunga_10.bmp,right,1.0,212.74824411000063,,213.899658203125,213.899658203125,0.0,,214.9122314453125,214.9122314453125,0.0,,214.41287231445312,214.41287231445312,0.0,,1.0,1.0,0.0,'right',0.6194025874137878,0.6194025874137878,0.0,213.2479248046875,213.2479248046875,0.0,,213.2479248046875,213.2479248046875,0.0,,213.899658203125,213.899658203125,0.0,,213.2479248046875,213.2479248046875,0.0,,213.899658203125,213.899658203125,0.0,,50.0
51,0,3,0,social,win,social_win,1,Play to WIN points

for the NEXT PARTICIPANT,3,stimuli/tunga_10.bmp,1,stimuli/tunga_05.bmp,0,1,5,10,stimuli/tunga_05.bmp,stimuli/tunga_10.bmp,stimuli/tunga_10.bmp,right,1.0,216.4273639100007,,217.62826538085938,217.62826538085938,0.0,,218.6580352783203,218.6580352783203,0.0,,218.14198303222656,218.14198303222656,0.0,,1.0,1.0,0.0,'right',0.6830453276634216,0.6830453276634216,0.0,216.9271697998047,216.9271697998047,0.0,,216.9271697998047,216.9271697998047,0.0,,217.62826538085938,217.62826538085938,0.0,,216.9271697998047,216.9271697998047,0.0,,217.62826538085938,217.62826538085938,0.0,,51.0
52,0,3,0,social,win,social_win,1,Play to WIN points

for the NEXT PARTICIPANT,4,stimuli/tunga_10.bmp,0,stimuli/tunga_05.bmp,1,0,10,5,stimuli/tunga_10.bmp,stimuli/tunga_05.bmp,stimuli/tunga_05.bmp,right,1.0,220.17273861000066,,221.44003295898438,221.44003295898438,0.0,,222.46078491210938,222.46078491210938,0.0,,221.953857421875,221.953857421875,0.0,,0.0,0.0,0.0,'left',0.7455605268478394,0.7455605268478394,0.0,220.67279052734375,220.67279052734375,0.0,,220.67279052734375,220.67279052734375,0.0,,221.44003295898438,221.44003295898438,0.0,,220.67279052734375,220.67279052734375,0.0,,221.44003295898438,221.44003295898438,0.0,,52.0
53,0,3,0,social,win,social_win,1,Play to WIN points

for the NEXT PARTICIPANT,5,stimuli/tunga_10.bmp,1,stimuli/tunga_05.bmp,0,1,5,10,stimuli/tunga_05.bmp,stimuli/tunga_10.bmp,stimuli/tunga_10.bmp,right,1.0,223.9683359100005,,224.98504638671875,224.98504638671875,0.0,,225.9827880859375,225.9827880859375,0.0,,225.4832763671875,225.4832763671875,0.0,,1.0,1.0,0.0,'right',0.492618203163147,0.492618203163147,0.0,224.46841430664062,224.46841430664062,0.0,,224.46841430664062,224.46841430664062,0.0,,224.98504638671875,224.98504638671875,0.0,,224.46841430664062,224.46841430664062,0.0,,224.98504638671875,224.98504638671875,0.0,,53.0
54,0,3,0,social,win,social_win,1,Play to WIN points

for the NEXT PARTICIPANT,6,stimuli/tunga_10.bmp,0,stimuli/tunga_05.bmp,1,1,5,10,stimuli/tunga_05.bmp,stimuli/tunga_10.bmp,stimuli/tunga_05.bmp,left,1.0,227.4977373100006,,228.63087463378906,228.63087463378906,0.0,,229.62933349609375,229.62933349609375,0.0,,229.12899780273438,229.12899780273438,0.0,,0.0,0.0,0.0,'right',0.6018261909484863,0.6018261909484863,0.0,227.99757385253906,227.99757385253906,0.0,,227.99757385253906,227.99757385253906,0.0,,228.63087463378906,228.63087463378906,0.0,,227.99757385253906,227.99757385253906,0.0,,228.63087463378906,228.63087463378906,0.0,,54.0
55,0,3,0,social,win,social_win,1,Play to WIN points

for the NEXT PARTICIPANT,7,stimuli/tunga_10.bmp,1,stimuli/tunga_05.bmp,0,0,10,5,stimuli/tunga_10.bmp,stimuli/tunga_05.bmp,stimuli/tunga_10.bmp,left,1.0,231.1433825099999,,232.38021850585938,232.38021850585938,0.0,,233.39422607421875,233.39422607421875,0.0,,232.89120483398438,232.89120483398438,0.0,,1.0,1.0,0.0,'left',0.7087692022323608,0.7087692022323608,0.0,231.64349365234375,231.64349365234375,0.0,,231.64349365234375,231.64349365234375,0.0,,232.38021850585938,232.38021850585938,0.0,,231.64349365234375,231.64349365234375,0.0,,232.38021850585938,232.38021850585938,0.0,,55.0
56,0,3,0,social,win,social_win,1,Play to WIN points

for the NEXT PARTICIPANT,8,stimuli/tunga_10.bmp,0,stimuli/tunga_05.bmp,1,1,5,10,stimuli/tunga_05.bmp,stimuli/tunga_10.bmp,stimuli/tunga_05.bmp,left,1.0,234.90589021000014,,235.92498779296875,235.92498779296875,0.0,,236.94076538085938,236.94076538085938,0.0,,236.4370880126953,236.4370880126953,0.0,,0.0,0.0,0.0,'right',0.4863659143447876,0.4863659143447876,0.0,235.4055633544922,235.4055633544922,0.0,,235.4055633544922,235.4055633544922,0.0,,235.92498779296875,235.92498779296875,0.0,,235.4055633544922,235.4055633544922,0.0,,235.92498779296875,235.92498779296875,0.0,,56.0
57,0,3,0,social,win,social_win,1,Play to WIN points

for the NEXT PARTICIPANT,9,stimuli/tunga_10.bmp,1,stimuli/tunga_05.bmp,0,0,10,5,stimuli/tunga_10.bmp,stimuli/tunga_05.bmp,stimuli/tunga_10.bmp,left,1.0,238.45154081000018,,239.38623046875,239.38623046875,0.0,,240.39915466308594,240.39915466308594,0.0,,239.89959716796875,239.89959716796875,0.0,,1.0,1.0,0.0,'left',0.40154001116752625,0.40154001116752625,0.0,238.951416015625,238.951416015625,0.0,,238.951416015625,238.951416015625,0.0,,239.38623046875,239.38623046875,0.0,,238.951416015625,238.951416015625,0.0,,239.38623046875,239.38623046875,0.0,,57.0
58,0,3,0,social,win,social_win,1,Play to WIN points

for the NEXT PARTICIPANT,10,stimuli/tunga_10.bmp,1,stimuli/tunga_05.bmp,0,0,10,5,stimuli/tunga_10.bmp,stimuli/tunga_05.bmp,stimuli/tunga_10.bmp,left,1.0,241.91438181000066,,243.01431274414062,243.01431274414062,0.0,,244.01197814941406,244.01197814941406,0.0,,243.5124053955078,243.5124053955078,0.0,,1.0,1.0,0.0,'left',0.5666403770446777,0.5666403770446777,0.0,242.41461181640625,242.41461181640625,0.0,,242.41461181640625,242.41461181640625,0.0,,243.01431274414062,243.01431274414062,0.0,,242.41461181640625,242.41461181640625,0.0,,243.01431274414062,243.01431274414062,0.0,,58.0
59,0,3,0,social,win,social_win,1,Play to WIN points

for the NEXT PARTICIPANT,11,stimuli/tunga_10.bmp,1,stimuli/tunga_05.bmp,0,1,5,10,stimuli/tunga_05.bmp,stimuli/tunga_10.bmp,stimuli/tunga_10.bmp,right,1.0,245.5267419100006,,246.65997314453125,246.65997314453125,0.0,,247.65760803222656,247.65760803222656,0.0,,247.1579132080078,247.1579132080078,0.0,,1.0,1.0,0.0,'right',0.6138535141944885,0.6138535141944885,0.0,246.02658081054688,246.02658081054688,0.0,,246.02658081054688,246.02658081054688,0.0,,246.65997314453125,246.65997314453125,0.0,,246.02658081054688,246.02658081054688,0.0,,246.65997314453125,246.65997314453125,0.0,,59.0
60,0,3,0,social,win,social_win,1,Play to WIN points

for the NEXT PARTICIPANT,12,stimuli/tunga_10.bmp,1,stimuli/tunga_05.bmp,0,1,5,10,stimuli/tunga_05.bmp,stimuli/tunga_10.bmp,stimuli/tunga_10.bmp,right,1.0,249.17250361000023,,250.2402801513672,250.2402801513672,0.0,,251.25375366210938,251.25375366210938,0.0,,250.75421142578125,250.75421142578125,0.0,,1.0,1.0,0.0,'right',0.5367556810379028,0.5367556810379028,0.0,249.67230224609375,249.67230224609375,0.0,,249.67230224609375,249.67230224609375,0.0,,250.2402801513672,250.2402801513672,0.0,,249.67230224609375,249.67230224609375,0.0,,250.2402801513672,250.2402801513672,0.0,,60.0
61,0,3,0,social,win,social_win,1,Play to WIN points

for the NEXT PARTICIPANT,13,stimuli/tunga_10.bmp,1,stimuli/tunga_05.bmp,0,0,10,5,stimuli/tunga_10.bmp,stimuli/tunga_05.bmp,stimuli/tunga_10.bmp,left,1.0,252.7685111100005,,253.91848754882812,253.91848754882812,0.0,,254.93270874023438,254.93270874023438,0.0,,254.4330596923828,254.4330596923828,0.0,,1.0,1.0,0.0,'left',0.632378876209259,0.632378876209259,0.0,253.26844787597656,253.26844787597656,0.0,,253.26844787597656,253.26844787597656,0.0,,253.91848754882812,253.91848754882812,0.0,,253.26844787597656,253.26844787597656,0.0,,253.91848754882812,253.91848754882812,0.0,,61.0
62,0,3,0,social,win,social_win,1,Play to WIN points

for the NEXT PARTICIPANT,14,stimuli/tunga_10.bmp,1,stimuli/tunga_05.bmp,0,1,5,10,stimuli/tunga_05.bmp,stimuli/tunga_10.bmp,stimuli/tunga_10.bmp,right,1.0,256.44764841000017,,257.5006103515625,257.5006103515625,0.0,,258.51202392578125,258.51202392578125,0.0,,258.01190185546875,258.01190185546875,0.0,,1.0,1.0,0.0,'right',0.5233445167541504,0.5233445167541504,0.0,256.947265625,256.947265625,0.0,,256.947265625,256.947265625,0.0,,257.5006103515625,257.5006103515625,0.0,,256.947265625,256.947265625,0.0,,257.5006103515625,257.5006103515625,0.0,,62.0
63,0,3,0,social,win,social_win,1,Play to WIN points

for the NEXT PARTICIPANT,15,stimuli/tunga_10.bmp,0,stimuli/tunga_05.bmp,1,1,5,10,stimuli/tunga_05.bmp,stimuli/tunga_10.bmp,stimuli/tunga_05.bmp,left,1.0,260.0266211100003,,261.04376220703125,261.04376220703125,0.0,,262.0613708496094,262.0613708496094,0.0,,261.558349609375,261.558349609375,0.0,,0.0,0.0,0.0,'right',0.4918785095214844,0.4918785095214844,0.0,260.526611328125,260.526611328125,0.0,,260.526611328125,260.526611328125,0.0,,261.04376220703125,261.04376220703125,0.0,,260.526611328125,260.526611328125,0.0,,261.04376220703125,261.04376220703125,0.0,,63.0
64,0,3,0,social,win,social_win,1,Play to WIN points

for the NEXT PARTICIPANT,16,stimuli/tunga_10.bmp,0,stimuli/tunga_05.bmp,1,0,10,5,stimuli/tunga_10.bmp,stimuli/tunga_05.bmp,stimuli/tunga_05.bmp,right,1.0,263.57253060999994,,264.6741027832031,264.6741027832031,0.0,,265.6868896484375,265.6868896484375,0.0,,265.1873779296875,265.1873779296875,0.0,,0.0,0.0,0.0,'left',0.5832921862602234,0.5832921862602234,0.0,264.0722961425781,264.0722961425781,0.0,,264.0722961425781,264.0722961425781,0.0,,264.6741027832031,264.6741027832031,0.0,,264.0722961425781,264.0722961425781,0.0,,264.6741027832031,264.6741027832031,0.0,,64.0
65,0,3,0,social,win,social_win,1,Play to WIN points

for the NEXT PARTICIPANT,17,stimuli/tunga_10.bmp,1,stimuli/tunga_05.bmp,0,0,10,5,stimuli/tunga_10.bmp,stimuli/tunga_05.bmp,stimuli/tunga_10.bmp,left,1.0,267.20191711000064,,268.2534484863281,268.2534484863281,0.0,,269.2699890136719,269.2699890136719,0.0,,268.76641845703125,268.76641845703125,0.0,,1.0,1.0,0.0,'left',0.5320947170257568,0.5320947170257568,0.0,267.7015380859375,267.7015380859375,0.0,,267.7015380859375,267.7015380859375,0.0,,268.2534484863281,268.2534484863281,0.0,,267.7015380859375,267.7015380859375,0.0,,268.2534484863281,268.2534484863281,0.0,,65.0
66,0,3,0,social,win,social_win,1,Play to WIN points

for the NEXT PARTICIPANT,18,stimuli/tunga_10.bmp,0,stimuli/tunga_05.bmp,1,0,10,5,stimuli/tunga_10.bmp,stimuli/tunga_05.bmp,stimuli/tunga_05.bmp,right,1.0,270.7809312100004,,271.7828674316406,271.7828674316406,0.0,,272.7950134277344,272.7950134277344,0.0,,272.29559326171875,272.29559326171875,0.0,,0.0,0.0,0.0,'left',0.48023611307144165,0.48023611307144165,0.0,271.2818603515625,271.2818603515625,0.0,,271.2818603515625,271.2818603515625,0.0,,271.7828674316406,271.7828674316406,0.0,,271.2818603515625,271.2818603515625,0.0,,271.7828674316406,271.7828674316406,0.0,,66.0
67,0,3,0,social,win,social_win,1,Play to WIN points

for the NEXT PARTICIPANT,19,stimuli/tunga_10.bmp,1,stimuli/tunga_05.bmp,0,0,10,5,stimuli/tunga_10.bmp,stimuli/tunga_05.bmp,stimuli/tunga_10.bmp,left,1.0,274.31039931,,275.7787780761719,275.7787780761719,0.0,,276.7908630371094,276.7908630371094,0.0,,276.291015625,276.291015625,0.0,,0.0,0.0,0.0,'right',0.9369210004806519,0.9369210004806519,0.0,274.80999755859375,274.80999755859375,0.0,,274.80999755859375,274.80999755859375,0.0,,275.7787780761719,275.7787780761719,0.0,,274.80999755859375,274.80999755859375,0.0,,275.7787780761719,275.7787780761719,0.0,,67.0
68,0,3,0,social,win,social_win,1,Play to WIN points

for the NEXT PARTICIPANT,20,stimuli/tunga_10.bmp,1,stimuli/tunga_05.bmp,0,0,10,5,stimuli/tunga_10.bmp,stimuli/tunga_05.bmp,stimuli/tunga_10.bmp,left,1.0,278.3057855100002,,279.3743591308594,279.3743591308594,0.0,,280.3914489746094,280.3914489746094,0.0,,279.8869934082031,279.8869934082031,0.0,,1.0,1.0,0.0,'left',0.5384135842323303,0.5384135842323303,0.0,278.8052062988281,278.8052062988281,0.0,,278.8052062988281,278.8052062988281,0.0,,279.3743591308594,279.3743591308594,0.0,,278.8052062988281,278.8052062988281,0.0,,279.3743591308594,279.3743591308594,0.0,,68.0
69,0,3,0,social,win,social_win,1,Play to WIN points

for the NEXT PARTICIPANT,21,stimuli/tunga_10.bmp,1,stimuli/tunga_05.bmp,0,1,5,10,stimuli/tunga_05.bmp,stimuli/tunga_10.bmp,stimuli/tunga_10.bmp,right,1.0,281.90132460999996,,282.9537658691406,282.9537658691406,0.0,,283.9658203125,283.9658203125,0.0,,283.4663391113281,283.4663391113281,0.0,,1.0,1.0,0.0,'right',0.5264543294906616,0.5264543294906616,0.0,282.4013671875,282.4013671875,0.0,,282.4013671875,282.4013671875,0.0,,282.9537658691406,282.9537658691406,0.0,,282.4013671875,282.4013671875,0.0,,282.9537658691406,282.9537658691406,0.0,,69.0
70,0,3,0,social,win,social_win,1,Play to WIN points

for the NEXT PARTICIPANT,22,stimuli/tunga_10.bmp,1,stimuli/tunga_05.bmp,0,0,10,5,stimuli/tunga_10.bmp,stimuli/tunga_05.bmp,stimuli/tunga_10.bmp,left,1.0,285.4806753100007,,286.63092041015625,286.63092041015625,0.0,,287.6448059082031,287.6448059082031,0.0,,287.1451721191406,287.1451721191406,0.0,,1.0,1.0,0.0,'left',0.6340265870094299,0.6340265870094299,0.0,285.9804382324219,285.9804382324219,0.0,,285.9804382324219,285.9804382324219,0.0,,286.63092041015625,286.63092041015625,0.0,,285.9804382324219,285.9804382324219,0.0,,286.63092041015625,286.63092041015625,0.0,,70.0
71,0,3,0,social,win,social_win,1,Play to WIN points

for the NEXT PARTICIPANT,23,stimuli/tunga_10.bmp,1,stimuli/tunga_05.bmp,0,1,5,10,stimuli/tunga_05.bmp,stimuli/tunga_10.bmp,stimuli/tunga_10.bmp,right,1.0,289.1596856100001,,290.42608642578125,290.42608642578125,0.0,,291.42376708984375,291.42376708984375,0.0,,290.9241027832031,290.9241027832031,0.0,,1.0,1.0,0.0,'right',0.7497270703315735,0.7497270703315735,0.0,289.65966796875,289.65966796875,0.0,,289.65966796875,289.65966796875,0.0,,290.42608642578125,290.42608642578125,0.0,,289.65966796875,289.65966796875,0.0,,290.42608642578125,290.42608642578125,0.0,,71.0
72,0,3,0,self,win,self_win,0,Play to WIN points

for YOURSELF,0,stimuli/tunga_14.bmp,1,stimuli/tunga_02.bmp,0,0,14,2,stimuli/tunga_14.bmp,stimuli/tunga_02.bmp,stimuli/tunga_14.bmp,left,1.0,292.94621480000023,,299.1507568359375,299.1507568359375,0.0,,300.16448974609375,300.16448974609375,0.0,,299.664306640625,299.664306640625,0.0,,0.0,0.0,0.0,'right',0.6469811201095581,0.6469811201095581,0.0,298.4747314453125,298.4747314453125,0.0,,298.4747314453125,298.4747314453125,0.0,,299.1507568359375,299.1507568359375,0.0,,298.4747314453125,298.4747314453125,0.0,,299.1507568359375,299.1507568359375,0.0,,72.0
73,0,3,0,self,win,self_win,0,Play to WIN points

for YOURSELF,1,stimuli/tunga_14.bmp,1,stimuli/tunga_02.bmp,0,1,2,14,stimuli/tunga_02.bmp,stimuli/tunga_14.bmp,stimuli/tunga_14.bmp,right,1.0,301.6784878100003,,302.61187744140625,302.61187744140625,0.0,,303.6094665527344,303.6094665527344,0.0,,303.110107421875,303.110107421875,0.0,,0.0,0.0,0.0,'left',0.40582048892974854,0.40582048892974854,0.0,302.1786193847656,302.1786193847656,0.0,,302.1786193847656,302.1786193847656,0.0,,302.61187744140625,302.61187744140625,0.0,,302.1786193847656,302.1786193847656,0.0,,302.61187744140625,302.61187744140625,0.0,,73.0
74,0,3,0,self,win,self_win,0,Play to WIN points

for YOURSELF,2,stimuli/tunga_14.bmp,1,stimuli/tunga_02.bmp,0,0,14,2,stimuli/tunga_14.bmp,stimuli/tunga_02.bmp,stimuli/tunga_14.bmp,left,1.0,305.1244018100002,,306.0414733886719,306.0414733886719,0.0,,307.0387878417969,307.0387878417969,0.0,,306.539306640625,306.539306640625,0.0,,1.0,1.0,0.0,'left',0.39167410135269165,0.39167410135269165,0.0,305.6245422363281,305.6245422363281,0.0,,305.6245422363281,305.6245422363281,0.0,,306.0414733886719,306.0414733886719,0.0,,305.6245422363281,305.6245422363281,0.0,,306.0414733886719,306.0414733886719,0.0,,74.0
75,0,3,0,self,win,self_win,0,Play to WIN points

for YOURSELF,3,stimuli/tunga_14.bmp,1,stimuli/tunga_02.bmp,0,0,14,2,stimuli/tunga_14.bmp,stimuli/tunga_02.bmp,stimuli/tunga_14.bmp,left,1.0,308.5539036100005,,309.52142333984375,309.52142333984375,0.0,,310.53472900390625,310.53472900390625,0.0,,310.03533935546875,310.03533935546875,0.0,,1.0,1.0,0.0,'left',0.4354022145271301,0.4354022145271301,0.0,309.05377197265625,309.05377197265625,0.0,,309.05377197265625,309.05377197265625,0.0,,309.52142333984375,309.52142333984375,0.0,,309.05377197265625,309.05377197265625,0.0,,309.52142333984375,309.52142333984375,0.0,,75.0
76,0,3,0,self,win,self_win,0,Play to WIN points

for YOURSELF,4,stimuli/tunga_14.bmp,1,stimuli/tunga_02.bmp,0,1,2,14,stimuli/tunga_02.bmp,stimuli/tunga_14.bmp,stimuli/tunga_14.bmp,right,1.0,312.0498661100006,,313.0833435058594,313.0833435058594,0.0,,314.0809326171875,314.0809326171875,0.0,,313.5811767578125,313.5811767578125,0.0,,1.0,1.0,0.0,'right',0.5035527944564819,0.5035527944564819,0.0,312.5496826171875,312.5496826171875,0.0,,312.5496826171875,312.5496826171875,0.0,,313.0833435058594,313.0833435058594,0.0,,312.5496826171875,312.5496826171875,0.0,,313.0833435058594,313.0833435058594,0.0,,76.0
77,0,3,0,self,win,self_win,0,Play to WIN points

for YOURSELF,5,stimuli/tunga_14.bmp,0,stimuli/tunga_02.bmp,1,0,14,2,stimuli/tunga_14.bmp,stimuli/tunga_02.bmp,stimuli/tunga_02.bmp,right,1.0,315.59582291000027,,316.6983642578125,316.6983642578125,0.0,,317.7141418457031,317.7141418457031,0.0,,317.21044921875,317.21044921875,0.0,,0.0,0.0,0.0,'left',0.5711917877197266,0.5711917877197266,0.0,316.09564208984375,316.09564208984375,0.0,,316.09564208984375,316.09564208984375,0.0,,316.6983642578125,316.6983642578125,0.0,,316.09564208984375,316.09564208984375,0.0,,316.6983642578125,316.6983642578125,0.0,,77.0
78,0,3,0,self,win,self_win,0,Play to WIN points

for YOURSELF,6,stimuli/tunga_14.bmp,0,stimuli/tunga_02.bmp,1,0,14,2,stimuli/tunga_14.bmp,stimuli/tunga_02.bmp,stimuli/tunga_02.bmp,right,1.0,319.22492981000016,,320.1916809082031,320.1916809082031,0.0,,321.18939208984375,321.18939208984375,0.0,,320.6896057128906,320.6896057128906,0.0,,0.0,0.0,0.0,'left',0.4396257996559143,0.4396257996559143,0.0,319.7247619628906,319.7247619628906,0.0,,319.7247619628906,319.7247619628906,0.0,,320.1916809082031,320.1916809082031,0.0,,319.7247619628906,319.7247619628906,0.0,,320.1916809082031,320.1916809082031,0.0,,78.0
79,0,3,0,self,win,self_win,0,Play to WIN points

for YOURSELF,7,stimuli/tunga_14.bmp,1,stimuli/tunga_02.bmp,0,1,2,14,stimuli/tunga_02.bmp,stimuli/tunga_14.bmp,stimuli/tunga_14.bmp,right,1.0,322.7041234100003,,323.6579895019531,323.6579895019531,0.0,,324.6711120605469,324.6711120605469,0.0,,324.1690368652344,324.1690368652344,0.0,,1.0,1.0,0.0,'right',0.41879668831825256,0.41879668831825256,0.0,323.2040710449219,323.2040710449219,0.0,,323.2040710449219,323.2040710449219,0.0,,323.6579895019531,323.6579895019531,0.0,,323.2040710449219,323.2040710449219,0.0,,323.6579895019531,323.6579895019531,0.0,,79.0
80,0,3,0,self,win,self_win,0,Play to WIN points

for YOURSELF,8,stimuli/tunga_14.bmp,1,stimuli/tunga_02.bmp,0,1,2,14,stimuli/tunga_02.bmp,stimuli/tunga_14.bmp,stimuli/tunga_14.bmp,right,1.0,326.1833203100001,,327.35186767578125,327.35186767578125,0.0,,328.3641662597656,328.3641662597656,0.0,,327.8645324707031,327.8645324707031,0.0,,1.0,1.0,0.0,'right',0.6296333074569702,0.6296333074569702,0.0,326.70001220703125,326.70001220703125,0.0,,326.70001220703125,326.70001220703125,0.0,,327.35186767578125,327.35186767578125,0.0,,326.70001220703125,326.70001220703125,0.0,,327.35186767578125,327.35186767578125,0.0,,80.0
81,0,3,0,self,win,self_win,0,Play to WIN points

for YOURSELF,9,stimuli/tunga_14.bmp,1,stimuli/tunga_02.bmp,0,1,2,14,stimuli/tunga_02.bmp,stimuli/tunga_14.bmp,stimuli/tunga_14.bmp,right,1.0,329.8793386100002,,330.99847412109375,330.99847412109375,0.0,,332.0101623535156,332.0101623535156,0.0,,331.5104064941406,331.5104064941406,0.0,,1.0,1.0,0.0,'right',0.5953302979469299,0.5953302979469299,0.0,330.37921142578125,330.37921142578125,0.0,,330.37921142578125,330.37921142578125,0.0,,330.99847412109375,330.99847412109375,0.0,,330.37921142578125,330.37921142578125,0.0,,330.99847412109375,330.99847412109375,0.0,,81.0
82,0,3,0,self,win,self_win,0,Play to WIN points

for YOURSELF,10,stimuli/tunga_14.bmp,1,stimuli/tunga_02.bmp,0,1,2,14,stimuli/tunga_02.bmp,stimuli/tunga_14.bmp,stimuli/tunga_14.bmp,right,1.0,333.5251749100004,,334.60986328125,334.60986328125,0.0,,335.6226501464844,335.6226501464844,0.0,,335.1233215332031,335.1233215332031,0.0,,1.0,1.0,0.0,'right',0.5664560794830322,0.5664560794830322,0.0,334.0247802734375,334.0247802734375,0.0,,334.0247802734375,334.0247802734375,0.0,,334.60986328125,334.60986328125,0.0,,334.0247802734375,334.0247802734375,0.0,,334.60986328125,334.60986328125,0.0,,82.0
83,0,3,0,self,win,self_win,0,Play to WIN points

for YOURSELF,11,stimuli/tunga_14.bmp,1,stimuli/tunga_02.bmp,0,1,2,14,stimuli/tunga_02.bmp,stimuli/tunga_14.bmp,stimuli/tunga_14.bmp,right,1.0,337.13736501000005,,338.15679931640625,338.15679931640625,0.0,,339.1684265136719,339.1684265136719,0.0,,338.6690979003906,338.6690979003906,0.0,,1.0,1.0,0.0,'right',0.49207600951194763,0.49207600951194763,0.0,337.63739013671875,337.63739013671875,0.0,,337.63739013671875,337.63739013671875,0.0,,338.15679931640625,338.15679931640625,0.0,,337.63739013671875,337.63739013671875,0.0,,338.15679931640625,338.15679931640625,0.0,,83.0
84,0,3,0,self,win,self_win,0,Play to WIN points

for YOURSELF,12,stimuli/tunga_14.bmp,1,stimuli/tunga_02.bmp,0,1,2,14,stimuli/tunga_02.bmp,stimuli/tunga_14.bmp,stimuli/tunga_14.bmp,right,1.0,340.68327871000076,,341.58489990234375,341.58489990234375,0.0,,342.597900390625,342.597900390625,0.0,,342.0982666015625,342.0982666015625,0.0,,1.0,1.0,0.0,'right',0.3744252026081085,0.3744252026081085,0.0,341.183349609375,341.183349609375,0.0,,341.183349609375,341.183349609375,0.0,,341.58489990234375,341.58489990234375,0.0,,341.183349609375,341.183349609375,0.0,,341.58489990234375,341.58489990234375,0.0,,84.0
85,0,3,0,self,win,self_win,0,Play to WIN points

for YOURSELF,13,stimuli/tunga_14.bmp,1,stimuli/tunga_02.bmp,0,1,2,14,stimuli/tunga_02.bmp,stimuli/tunga_14.bmp,stimuli/tunga_14.bmp,right,1.0,344.1128476099999,,345.1310729980469,345.1310729980469,0.0,,346.1436767578125,346.1436767578125,0.0,,345.6440734863281,345.6440734863281,0.0,,1.0,1.0,0.0,'right',0.49321430921554565,0.49321430921554565,0.0,344.6128234863281,344.6128234863281,0.0,,344.6128234863281,344.6128234863281,0.0,,345.1310729980469,345.1310729980469,0.0,,344.6128234863281,344.6128234863281,0.0,,345.1310729980469,345.1310729980469,0.0,,85.0
86,0,3,0,self,win,self_win,0,Play to WIN points

for YOURSELF,14,stimuli/tunga_14.bmp,1,stimuli/tunga_02.bmp,0,0,14,2,stimuli/tunga_14.bmp,stimuli/tunga_02.bmp,stimuli/tunga_14.bmp,left,1.0,347.65858941000045,,348.69561767578125,348.69561767578125,0.0,,349.70623779296875,349.70623779296875,0.0,,349.20672607421875,349.20672607421875,0.0,,1.0,1.0,0.0,'left',0.5024371147155762,0.5024371147155762,0.0,348.1584777832031,348.1584777832031,0.0,,348.1584777832031,348.1584777832031,0.0,,348.69561767578125,348.69561767578125,0.0,,348.1584777832031,348.1584777832031,0.0,,348.69561767578125,348.69561767578125,0.0,,86.0
87,0,3,0,self,win,self_win,0,Play to WIN points

for YOURSELF,15,stimuli/tunga_14.bmp,0,stimuli/tunga_02.bmp,1,1,2,14,stimuli/tunga_02.bmp,stimuli/tunga_14.bmp,stimuli/tunga_02.bmp,left,1.0,351.22109911000064,,352.08941650390625,352.08941650390625,0.0,,353.1021728515625,353.1021728515625,0.0,,352.6028137207031,352.6028137207031,0.0,,0.0,0.0,0.0,'right',0.34812450408935547,0.34812450408935547,0.0,351.7212219238281,351.7212219238281,0.0,,351.7212219238281,351.7212219238281,0.0,,352.08941650390625,352.08941650390625,0.0,,351.7212219238281,351.7212219238281,0.0,,352.08941650390625,352.08941650390625,0.0,,87.0
88,0,3,0,self,win,self_win,0,Play to WIN points

for YOURSELF,16,stimuli/tunga_14.bmp,0,stimuli/tunga_02.bmp,1,0,14,2,stimuli/tunga_14.bmp,stimuli/tunga_02.bmp,stimuli/tunga_02.bmp,right,1.0,354.61748601000056,,355.5027770996094,355.5027770996094,0.0,,356.51495361328125,356.51495361328125,0.0,,356.01556396484375,356.01556396484375,0.0,,1.0,1.0,0.0,'right',0.36363738775253296,0.36363738775253296,0.0,355.1171875,355.1171875,0.0,,355.1171875,355.1171875,0.0,,355.5027770996094,355.5027770996094,0.0,,355.1171875,355.1171875,0.0,,355.5027770996094,355.5027770996094,0.0,,88.0
89,0,3,0,self,win,self_win,0,Play to WIN points

for YOURSELF,17,stimuli/tunga_14.bmp,1,stimuli/tunga_02.bmp,0,0,14,2,stimuli/tunga_14.bmp,stimuli/tunga_02.bmp,stimuli/tunga_14.bmp,left,1.0,358.02990611000007,,358.96368408203125,358.96368408203125,0.0,,359.96124267578125,359.96124267578125,0.0,,359.4617004394531,359.4617004394531,0.0,,1.0,1.0,0.0,'left',0.40897130966186523,0.40897130966186523,0.0,358.52984619140625,358.52984619140625,0.0,,358.52984619140625,358.52984619140625,0.0,,358.96368408203125,358.96368408203125,0.0,,358.52984619140625,358.52984619140625,0.0,,358.96368408203125,358.96368408203125,0.0,,89.0
90,0,3,0,self,win,self_win,0,Play to WIN points

for YOURSELF,18,stimuli/tunga_14.bmp,1,stimuli/tunga_02.bmp,0,1,2,14,stimuli/tunga_02.bmp,stimuli/tunga_14.bmp,stimuli/tunga_14.bmp,right,1.0,361.4759463100005,,362.3632507324219,362.3632507324219,0.0,,363.373779296875,363.373779296875,0.0,,362.8741455078125,362.8741455078125,0.0,,1.0,1.0,0.0,'right',0.3511522114276886,0.3511522114276886,0.0,361.9758605957031,361.9758605957031,0.0,,361.9758605957031,361.9758605957031,0.0,,362.3632507324219,362.3632507324219,0.0,,361.9758605957031,361.9758605957031,0.0,,362.3632507324219,362.3632507324219,0.0,,90.0
91,0,3,0,self,win,self_win,0,Play to WIN points

for YOURSELF,19,stimuli/tunga_14.bmp,0,stimuli/tunga_02.bmp,1,0,14,2,stimuli/tunga_14.bmp,stimuli/tunga_02.bmp,stimuli/tunga_02.bmp,right,1.0,364.8887836099999,,365.9074401855469,365.9074401855469,0.0,,366.923095703125,366.923095703125,0.0,,366.4201965332031,366.4201965332031,0.0,,0.0,0.0,0.0,'left',0.49171769618988037,0.49171769618988037,0.0,365.3887634277344,365.3887634277344,0.0,,365.3887634277344,365.3887634277344,0.0,,365.9074401855469,365.9074401855469,0.0,,365.3887634277344,365.3887634277344,0.0,,365.9074401855469,365.9074401855469,0.0,,91.0
92,0,3,0,self,win,self_win,0,Play to WIN points

for YOURSELF,20,stimuli/tunga_14.bmp,0,stimuli/tunga_02.bmp,1,0,14,2,stimuli/tunga_14.bmp,stimuli/tunga_02.bmp,stimuli/tunga_02.bmp,right,1.0,368.43469251000045,,369.353515625,369.353515625,0.0,,370.3655090332031,370.3655090332031,0.0,,369.86614990234375,369.86614990234375,0.0,,0.0,0.0,0.0,'left',0.3954775035381317,0.3954775035381317,0.0,368.93450927734375,368.93450927734375,0.0,,368.93450927734375,368.93450927734375,0.0,,369.353515625,369.353515625,0.0,,368.93450927734375,368.93450927734375,0.0,,369.353515625,369.353515625,0.0,,92.0
93,0,3,0,self,win,self_win,0,Play to WIN points

for YOURSELF,21,stimuli/tunga_14.bmp,1,stimuli/tunga_02.bmp,0,0,14,2,stimuli/tunga_14.bmp,stimuli/tunga_02.bmp,stimuli/tunga_14.bmp,left,1.0,371.8808173100002,,372.681884765625,372.681884765625,0.0,,373.6950988769531,373.6950988769531,0.0,,373.1955871582031,373.1955871582031,0.0,,0.0,0.0,0.0,'right',0.27608948945999146,0.27608948945999146,0.0,372.3804626464844,372.3804626464844,0.0,,372.3804626464844,372.3804626464844,0.0,,372.681884765625,372.681884765625,0.0,,372.3804626464844,372.3804626464844,0.0,,372.681884765625,372.681884765625,0.0,,93.0
94,0,3,0,self,win,self_win,0,Play to WIN points

for YOURSELF,22,stimuli/tunga_14.bmp,1,stimuli/tunga_02.bmp,0,1,2,14,stimuli/tunga_02.bmp,stimuli/tunga_14.bmp,stimuli/tunga_14.bmp,right,1.0,375.20985901000006,,376.1956787109375,376.1956787109375,0.0,,377.207763671875,377.207763671875,0.0,,376.7082824707031,376.7082824707031,0.0,,0.0,0.0,0.0,'left',0.45468491315841675,0.45468491315841675,0.0,375.7099304199219,375.7099304199219,0.0,,375.7099304199219,375.7099304199219,0.0,,376.1956787109375,376.1956787109375,0.0,,375.7099304199219,375.7099304199219,0.0,,376.1956787109375,376.1956787109375,0.0,,94.0
95,0,3,0,self,win,self_win,0,Play to WIN points

for YOURSELF,23,stimuli/tunga_14.bmp,1,stimuli/tunga_02.bmp,0,0,14,2,stimuli/tunga_14.bmp,stimuli/tunga_02.bmp,stimuli/tunga_14.bmp,left,1.0,378.7226127099999,,379.5895690917969,379.5895690917969,0.0,,380.5887451171875,380.5887451171875,0.0,,380.0877380371094,380.0877380371094,0.0,,1.0,1.0,0.0,'left',0.35002410411834717,0.35002410411834717,0.0,379.22265625,379.22265625,0.0,,379.22265625,379.22265625,0.0,,379.5895690917969,379.5895690917969,0.0,,379.22265625,379.22265625,0.0,,379.5895690917969,379.5895690917969,0.0,,95.0

extraInfo
participant,00
date,2021_Feb_28_1419
expName,prosocial-learning
psychopyVersion,2020.2.4
frameRate,60.08218040633399
