subject,type,condition,goal,block,block_num,block_instr_text,trial_num,stim_0,stim_0_value,stim_1,stim_1_value,position_changed,stim_left,stim_right,stim_left_name,stim_right_name,stim_left_name_feedback,stim_right_name_feedback,optimal_stim,optimal_choice,practice_round.thisRepN,practice_round.thisTrialN,practice_round.thisN,practice_round.thisIndex,trials.thisRepN,trials.thisTrialN,trials.thisN,trials.thisIndex,BlockInstr_disp.started,BlockInstr_disp.stopped,iti.started,iti.stopped,left.started,left.stopped,right.started,right.stopped,key_resp.keys,key_resp.corr,key_resp.rt,key_resp.started,key_resp.stopped,chosen_stim_name,chosen_stim_0,chosen_stim_1,true_accuracy,left_feedback.started,left_feedback.stopped,right_feedback.started,right_feedback.stopped,cumulativePts_self,outcomeDescr,outcome,feedback_text.started,feedback_text.stopped,participant,date,expName,psychopyVersion,frameRate,
0,0,self,win,self_win,1,Play to WIN points,0,stimuli/slot1_up.jpg,1,stimuli/slot2_up.jpg,0,1,2,1,stimuli/slot2_up.jpg,stimuli/slot1_up.jpg,stimuli/slot2_down.jpg,stimuli/slot1_down.jpg,stimuli/slot1_up.jpg,right,,,,,0,0,0,0,79.73080429999936,None,86.2889559999985,None,85.28482599999916,None,85.28482599999916,None,right,1,0.41126470000017434,85.28482599999916,None,stimuli/slot1_up.jpg,1,0,1,85.77482640000017,None,85.77482640000017,None,1800,self win,1,86.78825529999995,None,00,2021_Feb_28_1628,two-armed-bandit,2020.2.10,60.10554533748281,
0,0,self,win,self_win,1,Play to WIN points,1,stimuli/slot1_up.jpg,1,stimuli/slot2_up.jpg,0,1,2,1,stimuli/slot2_up.jpg,stimuli/slot1_up.jpg,stimuli/slot2_down.jpg,stimuli/slot1_down.jpg,stimuli/slot1_up.jpg,right,,,,,0,1,1,1,88.30348642999851,None,90.2840989999986,None,88.85168619999968,None,88.85168619999968,None,right,1,0.8500141000004078,88.85168619999968,None,stimuli/slot1_up.jpg,1,0,1,89.77077579999968,None,89.77077579999968,None,1900,self win,1,90.7837356,None,00,2021_Feb_28_1628,two-armed-bandit,2020.2.10,60.10554533748281,
0,0,self,win,self_win,1,Play to WIN points,2,stimuli/slot1_up.jpg,1,stimuli/slot2_up.jpg,0,0,1,2,stimuli/slot1_up.jpg,stimuli/slot2_up.jpg,stimuli/slot1_down.jpg,stimuli/slot2_down.jpg,stimuli/slot1_up.jpg,left,,,,,0,2,2,2,92.29853252999928,None,93.84689119999894,None,92.87823119999848,None,92.87823119999848,None,left,1,0.40421260000039183,92.87823119999848,None,stimuli/slot1_up.jpg,1,0,1,93.34461579999879,None,93.34461579999879,None,2000,self win,1,94.34611529999893,None,00,2021_Feb_28_1628,two-armed-bandit,2020.2.10,60.10554533748281,
0,0,self,win,self_win,1,Play to WIN points,3,stimuli/slot1_up.jpg,1,stimuli/slot2_up.jpg,0,1,2,1,stimuli/slot2_up.jpg,stimuli/slot1_up.jpg,stimuli/slot2_down.jpg,stimuli/slot1_down.jpg,stimuli/slot1_up.jpg,right,,,,,0,3,3,3,95.86153062999946,None,97.52592519999962,None,96.42705819999901,None,96.42705819999901,None,right,1,0.5197831000004953,96.42705819999901,None,stimuli/slot1_up.jpg,1,0,1,97.02655169999889,None,97.02655169999889,None,2100,self win,1,98.02559499999916,None,00,2021_Feb_28_1628,two-armed-bandit,2020.2.10,60.10554533748281,
0,0,self,win,self_win,1,Play to WIN points,4,stimuli/slot1_up.jpg,0,stimuli/slot2_up.jpg,1,0,1,2,stimuli/slot1_up.jpg,stimuli/slot2_up.jpg,stimuli/slot1_down.jpg,stimuli/slot2_down.jpg,stimuli/slot2_up.jpg,right,,,,,0,4,4,4,99.54033772999864,None,100.90537669999867,None,100.08659399999851,None,100.08659399999851,None,left,0,0.2528812000000471,100.08659399999851,None,stimuli/slot1_up.jpg,1,0,1,100.40380759999971,None,100.40380759999971,None,2100,self avoid win,0,101.40544659999978,None,00,2021_Feb_28_1628,two-armed-bandit,2020.2.10,60.10554533748281,
0,0,self,win,self_win,1,Play to WIN points,5,stimuli/slot1_up.jpg,0,stimuli/slot2_up.jpg,1,0,1,2,stimuli/slot1_up.jpg,stimuli/slot2_up.jpg,stimuli/slot1_down.jpg,stimuli/slot2_down.jpg,stimuli/slot2_up.jpg,right,,,,,0,5,5,5,102.91961683000008,None,104.33459089999997,None,103.48489749999862,None,103.48489749999862,None,right,1,0.2758198000010452,103.48489749999862,None,stimuli/slot2_up.jpg,0,1,0,103.82962880000014,None,103.82962880000014,None,2200,self win,1,104.8435931999993,None,00,2021_Feb_28_1628,two-armed-bandit,2020.2.10,60.10554533748281,
0,0,self,win,self_win,1,Play to WIN points,6,stimuli/slot1_up.jpg,0,stimuli/slot2_up.jpg,1,0,1,2,stimuli/slot1_up.jpg,stimuli/slot2_up.jpg,stimuli/slot1_down.jpg,stimuli/slot2_down.jpg,stimuli/slot2_up.jpg,right,,,,,0,6,6,6,106.34894422999932,None,107.78069639999921,None,106.90015390000008,None,106.90015390000008,None,right,1,0.3038926999997784,106.90015390000008,None,stimuli/slot2_up.jpg,0,1,0,107.28217129999939,None,107.28217129999939,None,2300,self win,1,108.28018559999873,None,00,2021_Feb_28_1628,two-armed-bandit,2020.2.10,60.10554533748281,
0,0,self,win,self_win,1,Play to WIN points,7,stimuli/slot1_up.jpg,1,stimuli/slot2_up.jpg,0,0,1,2,stimuli/slot1_up.jpg,stimuli/slot2_up.jpg,stimuli/slot1_down.jpg,stimuli/slot2_down.jpg,stimuli/slot1_up.jpg,left,,,,,0,7,7,7,109.79525662999876,None,111.2932037999999,None,110.3309492999997,None,110.3309492999997,None,right,0,0.36554359999900043,110.3309492999997,None,stimuli/slot2_up.jpg,0,1,0,110.77948749999996,None,110.77948749999996,None,2300,self avoid win,0,111.80041279999932,None,00,2021_Feb_28_1628,two-armed-bandit,2020.2.10,60.10554533748281,
0,0,self,win,self_win,1,Play to WIN points,8,stimuli/slot1_up.jpg,0,stimuli/slot2_up.jpg,1,1,2,1,stimuli/slot2_up.jpg,stimuli/slot1_up.jpg,stimuli/slot2_down.jpg,stimuli/slot1_down.jpg,stimuli/slot2_up.jpg,left,,,,,0,8,8,8,113.30764402999884,None,114.82242529999894,None,113.85399139999936,None,113.85399139999936,None,left,1,0.3864233000003878,113.85399139999936,None,stimuli/slot2_up.jpg,0,1,0,114.3238339999989,None,114.3238339999989,None,2400,self win,1,115.33137559999886,None,00,2021_Feb_28_1628,two-armed-bandit,2020.2.10,60.10554533748281,
0,0,self,win,self_win,1,Play to WIN points,9,stimuli/slot1_up.jpg,1,stimuli/slot2_up.jpg,0,0,1,2,stimuli/slot1_up.jpg,stimuli/slot2_up.jpg,stimuli/slot1_down.jpg,stimuli/slot2_down.jpg,stimuli/slot1_up.jpg,left,,,,,0,9,9,9,116.83700182999891,None,118.26849849999962,None,117.38693160000003,None,117.38693160000003,None,right,0,0.31060210000032384,117.38693160000003,None,stimuli/slot2_up.jpg,0,1,0,117.76785819999895,None,117.76785819999895,None,2400,self avoid win,0,118.77683160000015,None,00,2021_Feb_28_1628,two-armed-bandit,2020.2.10,60.10554533748281,
0,0,self,win,self_win,1,Play to WIN points,10,stimuli/slot1_up.jpg,1,stimuli/slot2_up.jpg,0,1,2,1,stimuli/slot2_up.jpg,stimuli/slot1_up.jpg,stimuli/slot2_down.jpg,stimuli/slot1_down.jpg,stimuli/slot1_up.jpg,right,,,,,0,10,10,10,120.28283302999952,None,121.74786639999911,None,120.82682620000014,None,120.82682620000014,None,left,0,0.3246725000008155,120.82682620000014,None,stimuli/slot2_up.jpg,0,1,0,121.23445419999916,None,121.23445419999916,None,2400,self avoid win,0,122.24729819999993,None,00,2021_Feb_28_1628,two-armed-bandit,2020.2.10,60.10554533748281,
0,0,self,win,self_win,1,Play to WIN points,11,stimuli/slot1_up.jpg,1,stimuli/slot2_up.jpg,0,1,2,1,stimuli/slot2_up.jpg,stimuli/slot1_up.jpg,stimuli/slot2_down.jpg,stimuli/slot1_down.jpg,stimuli/slot1_up.jpg,right,,,,,0,11,11,11,123.7622919299989,None,125.31033289999868,None,124.31176400000004,None,124.31176400000004,None,left,0,0.40230830000109563,124.31176400000004,None,stimuli/slot2_up.jpg,0,1,0,124.79574609999872,None,124.79574609999872,None,2400,self avoid win,0,125.81006779999916,None,00,2021_Feb_28_1628,two-armed-bandit,2020.2.10,60.10554533748281,
0,0,self,win,self_win,1,Play to WIN points,12,stimuli/slot1_up.jpg,1,stimuli/slot2_up.jpg,0,1,2,1,stimuli/slot2_up.jpg,stimuli/slot1_up.jpg,stimuli/slot2_down.jpg,stimuli/slot1_down.jpg,stimuli/slot1_up.jpg,right,,,,,0,12,12,12,127.32498402999917,None,128.7395822999988,None,127.87529229999927,None,127.87529229999927,None,right,1,0.30050609999852895,127.87529229999927,None,stimuli/slot1_up.jpg,1,0,1,128.23991399999977,None,128.23991399999977,None,2500,self win,1,129.23897359999864,None,00,2021_Feb_28_1628,two-armed-bandit,2020.2.10,60.10554533748281,
0,0,self,win,self_win,1,Play to WIN points,13,stimuli/slot1_up.jpg,1,stimuli/slot2_up.jpg,0,1,2,1,stimuli/slot2_up.jpg,stimuli/slot1_up.jpg,stimuli/slot2_down.jpg,stimuli/slot1_down.jpg,stimuli/slot1_up.jpg,right,,,,,0,13,13,13,130.75429183000014,None,132.20243630000004,None,131.30272949999926,None,131.30272949999926,None,right,1,0.32206050000058895,131.30272949999926,None,stimuli/slot1_up.jpg,1,0,1,131.69789499999933,None,131.69789499999933,None,2600,self win,1,132.70181539999976,None,00,2021_Feb_28_1628,two-armed-bandit,2020.2.10,60.10554533748281,
0,0,self,win,self_win,1,Play to WIN points,14,stimuli/slot1_up.jpg,1,stimuli/slot2_up.jpg,0,1,2,1,stimuli/slot2_up.jpg,stimuli/slot1_up.jpg,stimuli/slot2_down.jpg,stimuli/slot1_down.jpg,stimuli/slot1_up.jpg,right,,,,,0,14,14,14,134.21685042999852,None,135.69852119999996,None,134.80187609999848,None,134.80187609999848,None,right,1,0.31509469999946305,134.80187609999848,None,stimuli/slot1_up.jpg,1,0,1,135.1845188999996,None,135.1845188999996,None,2700,self win,1,136.19818019999911,None,00,2021_Feb_28_1628,two-armed-bandit,2020.2.10,60.10554533748281,
0,0,self,win,self_win,1,Play to WIN points,15,stimuli/slot1_up.jpg,1,stimuli/slot2_up.jpg,0,0,1,2,stimuli/slot1_up.jpg,stimuli/slot2_up.jpg,stimuli/slot1_down.jpg,stimuli/slot2_down.jpg,stimuli/slot1_up.jpg,left,,,,,0,15,15,15,137.71291232999974,None,139.2110002999998,None,138.26192660000015,None,138.26192660000015,None,left,1,0.357337200000984,138.26192660000015,None,stimuli/slot1_up.jpg,1,0,1,138.70632269999987,None,138.70632269999987,None,2800,self win,1,139.7105302,None,00,2021_Feb_28_1628,two-armed-bandit,2020.2.10,60.10554533748281,
0,0,self,win,self_win,1,Play to WIN points,16,stimuli/slot1_up.jpg,1,stimuli/slot2_up.jpg,0,0,1,2,stimuli/slot1_up.jpg,stimuli/slot2_up.jpg,stimuli/slot1_down.jpg,stimuli/slot2_down.jpg,stimuli/slot1_up.jpg,left,,,,,0,16,16,16,141.22538462999873,None,142.67371329999878,None,141.77217649999875,None,141.77217649999875,None,left,1,0.3169447999989643,141.77217649999875,None,stimuli/slot1_up.jpg,1,0,1,142.15976299999966,None,142.15976299999966,None,2900,self win,1,143.18956369999978,None,00,2021_Feb_28_1628,two-armed-bandit,2020.2.10,60.10554533748281,
0,0,self,win,self_win,1,Play to WIN points,17,stimuli/slot1_up.jpg,1,stimuli/slot2_up.jpg,0,0,1,2,stimuli/slot1_up.jpg,stimuli/slot2_up.jpg,stimuli/slot1_down.jpg,stimuli/slot2_down.jpg,stimuli/slot1_up.jpg,left,,,,,0,17,17,17,144.7046633299993,None,146.3694891999985,None,145.2525773999987,None,145.2525773999987,None,left,1,0.5522428000003856,145.2525773999987,None,stimuli/slot1_up.jpg,1,0,1,145.86960629999885,None,145.86960629999885,None,3000,self win,1,146.86887949999982,None,00,2021_Feb_28_1628,two-armed-bandit,2020.2.10,60.10554533748281,
0,0,self,win,self_win,1,Play to WIN points,18,stimuli/slot1_up.jpg,0,stimuli/slot2_up.jpg,1,0,1,2,stimuli/slot1_up.jpg,stimuli/slot2_up.jpg,stimuli/slot1_down.jpg,stimuli/slot2_down.jpg,stimuli/slot2_up.jpg,right,,,,,0,18,18,18,148.38405502999885,None,149.8488454999988,None,148.9328071,None,148.9328071,None,left,0,0.34947229999852425,148.9328071,None,stimuli/slot1_up.jpg,1,0,1,149.34657079999852,None,149.34657079999852,None,3000,self avoid win,0,150.35677499999838,None,00,2021_Feb_28_1628,two-armed-bandit,2020.2.10,60.10554533748281,
0,0,self,win,self_win,1,Play to WIN points,19,stimuli/slot1_up.jpg,1,stimuli/slot2_up.jpg,0,0,1,2,stimuli/slot1_up.jpg,stimuli/slot2_up.jpg,stimuli/slot1_down.jpg,stimuli/slot2_down.jpg,stimuli/slot1_up.jpg,left,,,,,0,19,19,19,151.86319972999954,None,153.4611378999998,None,152.42154039999878,None,152.42154039999878,None,left,1,0.44923299999936717,152.42154039999878,None,stimuli/slot1_up.jpg,1,0,1,152.94680100000005,None,152.94680100000005,None,3100,self win,1,153.97053309999865,None,00,2021_Feb_28_1628,two-armed-bandit,2020.2.10,60.10554533748281,
0,0,self,win,self_win,1,Play to WIN points,20,stimuli/slot1_up.jpg,1,stimuli/slot2_up.jpg,0,0,1,2,stimuli/slot1_up.jpg,stimuli/slot2_up.jpg,stimuli/slot1_down.jpg,stimuli/slot2_down.jpg,stimuli/slot1_up.jpg,left,,,,,0,20,20,20,155.4757042299985,None,156.95698269999957,None,156.02089689999957,None,156.02089689999957,None,left,1,0.3630025000002206,156.02089689999957,None,stimuli/slot1_up.jpg,1,0,1,156.45668099999966,None,156.45668099999966,None,3200,self win,1,157.4567505999985,None,00,2021_Feb_28_1628,two-armed-bandit,2020.2.10,60.10554533748281,
0,0,self,win,self_win,1,Play to WIN points,21,stimuli/slot1_up.jpg,0,stimuli/slot2_up.jpg,1,0,1,2,stimuli/slot1_up.jpg,stimuli/slot2_up.jpg,stimuli/slot1_down.jpg,stimuli/slot2_down.jpg,stimuli/slot2_up.jpg,right,,,,,0,21,21,21,158.9715498299989,None,160.486592199999,None,159.5166408999994,None,159.5166408999994,None,left,0,0.4000386999996408,159.5166408999994,None,stimuli/slot1_up.jpg,1,0,1,159.98772699999972,None,159.98772699999972,None,3200,self avoid win,0,161.00984509999944,None,00,2021_Feb_28_1628,two-armed-bandit,2020.2.10,60.10554533748281,
0,0,self,win,self_win,1,Play to WIN points,22,stimuli/slot1_up.jpg,1,stimuli/slot2_up.jpg,0,1,2,1,stimuli/slot2_up.jpg,stimuli/slot1_up.jpg,stimuli/slot2_down.jpg,stimuli/slot1_down.jpg,stimuli/slot1_up.jpg,right,,,,,0,22,22,22,162.5174551299984,None,164.01572759999908,None,163.06659469999977,None,163.06659469999977,None,right,1,0.33803489999991143,163.06659469999977,None,stimuli/slot1_up.jpg,1,0,1,163.51166629999898,None,163.51166629999898,None,3300,self win,1,164.52465440000014,None,00,2021_Feb_28_1628,two-armed-bandit,2020.2.10,60.10554533748281,
0,0,self,win,self_win,1,Play to WIN points,23,stimuli/slot1_up.jpg,1,stimuli/slot2_up.jpg,0,0,1,2,stimuli/slot1_up.jpg,stimuli/slot2_up.jpg,stimuli/slot1_down.jpg,stimuli/slot2_down.jpg,stimuli/slot1_up.jpg,left,,,,,0,23,23,23,166.03015473000013,None,167.4451623999994,None,166.57668000000012,None,166.57668000000012,None,left,1,0.30175169999893114,166.57668000000012,None,stimuli/slot1_up.jpg,1,0,1,166.94142049999937,None,166.94142049999937,None,3400,self win,1,167.94469709999976,None,00,2021_Feb_28_1628,two-armed-bandit,2020.2.10,60.10554533748281,
0,0,self,win,self_win,1,Play to WIN points,24,stimuli/slot1_up.jpg,0,stimuli/slot2_up.jpg,1,0,1,2,stimuli/slot1_up.jpg,stimuli/slot2_up.jpg,stimuli/slot1_down.jpg,stimuli/slot2_down.jpg,stimuli/slot2_up.jpg,right,,,,,0,24,24,24,169.45942682999848,None,170.9578660999996,None,170.0077394,None,170.0077394,None,left,0,0.35795840000173484,170.0077394,None,stimuli/slot1_up.jpg,1,0,1,170.45467199999985,None,170.45467199999985,None,3400,self avoid win,0,171.46661659999882,None,00,2021_Feb_28_1628,two-armed-bandit,2020.2.10,60.10554533748281,
0,0,self,win,self_win,1,Play to WIN points,25,stimuli/slot1_up.jpg,1,stimuli/slot2_up.jpg,0,1,2,1,stimuli/slot2_up.jpg,stimuli/slot1_up.jpg,stimuli/slot2_down.jpg,stimuli/slot1_down.jpg,stimuli/slot1_up.jpg,right,,,,,0,25,25,25,172.9722485299986,None,174.37030419999974,None,173.52099949999865,None,173.52099949999865,None,right,1,0.28311939999912283,173.52099949999865,None,stimuli/slot1_up.jpg,1,0,1,173.86836649999896,None,173.86836649999896,None,3500,self win,1,174.87884529999974,None,00,2021_Feb_28_1628,two-armed-bandit,2020.2.10,60.10554533748281,
0,0,self,win,self_win,1,Play to WIN points,26,stimuli/slot1_up.jpg,1,stimuli/slot2_up.jpg,0,0,1,2,stimuli/slot1_up.jpg,stimuli/slot2_up.jpg,stimuli/slot1_down.jpg,stimuli/slot2_down.jpg,stimuli/slot1_up.jpg,left,,,,,0,26,26,26,176.38495872999883,None,177.84961649999968,None,176.93158429999858,None,176.93158429999858,None,left,1,0.32584379999934754,176.93158429999858,None,stimuli/slot1_up.jpg,1,0,1,177.34856819999914,None,177.34856819999914,None,3600,self win,1,178.34891809999863,None,00,2021_Feb_28_1628,two-armed-bandit,2020.2.10,60.10554533748281,
0,0,self,win,self_win,1,Play to WIN points,27,stimuli/slot1_up.jpg,1,stimuli/slot2_up.jpg,0,1,2,1,stimuli/slot2_up.jpg,stimuli/slot1_up.jpg,stimuli/slot2_down.jpg,stimuli/slot1_down.jpg,stimuli/slot1_up.jpg,right,,,,,0,27,27,27,179.86414842999838,None,181.44549129999905,None,180.41726019999987,None,180.41726019999987,None,right,1,0.43658140000115964,180.41726019999987,None,stimuli/slot1_up.jpg,1,0,1,180.93200609999985,None,180.93200609999985,None,3700,self win,1,181.94477860000006,None,00,2021_Feb_28_1628,two-armed-bandit,2020.2.10,60.10554533748281,
0,0,self,win,self_win,1,Play to WIN points,28,stimuli/slot1_up.jpg,1,stimuli/slot2_up.jpg,0,0,1,2,stimuli/slot1_up.jpg,stimuli/slot2_up.jpg,stimuli/slot1_down.jpg,stimuli/slot2_down.jpg,stimuli/slot1_up.jpg,left,,,,,0,28,28,28,183.45994522999862,None,185.07464699999946,None,184.00951579999855,None,184.00951579999855,None,left,1,0.4836706000005506,184.00951579999855,None,stimuli/slot1_up.jpg,1,0,1,184.56177969999953,None,184.56177969999953,None,3800,self win,1,185.57410759999948,None,00,2021_Feb_28_1628,two-armed-bandit,2020.2.10,60.10554533748281,
0,0,self,win,self_win,1,Play to WIN points,29,stimuli/slot1_up.jpg,1,stimuli/slot2_up.jpg,0,1,2,1,stimuli/slot2_up.jpg,stimuli/slot1_up.jpg,stimuli/slot2_down.jpg,stimuli/slot1_down.jpg,stimuli/slot1_up.jpg,right,,,,,0,29,29,29,187.08890762999872,None,188.55406330000005,None,187.635518699999,None,187.635518699999,None,right,1,0.3493202999998175,187.635518699999,None,stimuli/slot1_up.jpg,1,0,1,188.04592579999917,None,188.04592579999917,None,3900,self win,1,189.05342719999862,None,00,2021_Feb_28_1628,two-armed-bandit,2020.2.10,60.10554533748281,
0,0,self,win,self_win,1,Play to WIN points,30,stimuli/slot1_up.jpg,1,stimuli/slot2_up.jpg,0,0,1,2,stimuli/slot1_up.jpg,stimuli/slot2_up.jpg,stimuli/slot1_down.jpg,stimuli/slot2_down.jpg,stimuli/slot1_up.jpg,left,,,,,0,30,30,30,190.56825702999922,None,192.0001863999987,None,191.11640269999953,None,191.11640269999953,None,left,1,0.29671349999989616,191.11640269999953,None,stimuli/slot1_up.jpg,1,0,1,191.48915619999934,None,191.48915619999934,None,4000,self win,1,192.49949409999863,None,00,2021_Feb_28_1628,two-armed-bandit,2020.2.10,60.10554533748281,
0,0,self,win,self_win,1,Play to WIN points,31,stimuli/slot1_up.jpg,1,stimuli/slot2_up.jpg,0,1,2,1,stimuli/slot2_up.jpg,stimuli/slot1_up.jpg,stimuli/slot2_down.jpg,stimuli/slot1_down.jpg,stimuli/slot1_up.jpg,right,,,,,0,31,31,31,194.01450652999992,None,195.92844839999998,None,194.56159059999845,None,194.56159059999845,None,right,1,0.7756836000007752,194.56159059999845,None,stimuli/slot1_up.jpg,1,0,1,195.4197125999999,None,195.4197125999999,None,4100,self win,1,196.42853699999978,None,00,2021_Feb_28_1628,two-armed-bandit,2020.2.10,60.10554533748281,
0,0,self,win,self_win,1,Play to WIN points,32,stimuli/slot1_up.jpg,1,stimuli/slot2_up.jpg,0,1,2,1,stimuli/slot2_up.jpg,stimuli/slot1_up.jpg,stimuli/slot2_down.jpg,stimuli/slot1_down.jpg,stimuli/slot1_up.jpg,right,,,,,0,32,32,32,197.94337432999927,None,199.4582563999993,None,198.50785989999895,None,198.50785989999895,None,right,1,0.35623579999992216,198.50785989999895,None,stimuli/slot1_up.jpg,1,0,1,198.94656719999875,None,198.94656719999875,None,4200,self win,1,199.95740739999928,None,00,2021_Feb_28_1628,two-armed-bandit,2020.2.10,60.10554533748281,
0,0,self,win,self_win,1,Play to WIN points,33,stimuli/slot1_up.jpg,0,stimuli/slot2_up.jpg,1,0,1,2,stimuli/slot1_up.jpg,stimuli/slot2_up.jpg,stimuli/slot1_down.jpg,stimuli/slot2_down.jpg,stimuli/slot2_up.jpg,right,,,,,0,33,33,33,201.4726363299993,None,202.93754009999975,None,202.02140679999866,None,202.02140679999866,None,left,0,0.33004579999942507,202.02140679999866,None,stimuli/slot1_up.jpg,1,0,1,202.42282609999893,None,202.42282609999893,None,4200,self avoid win,0,203.445520199999,None,00,2021_Feb_28_1628,two-armed-bandit,2020.2.10,60.10554533748281,
0,0,self,win,self_win,1,Play to WIN points,34,stimuli/slot1_up.jpg,1,stimuli/slot2_up.jpg,0,1,2,1,stimuli/slot2_up.jpg,stimuli/slot1_up.jpg,stimuli/slot2_down.jpg,stimuli/slot1_down.jpg,stimuli/slot1_up.jpg,right,,,,,0,34,34,34,204.95184822999872,None,206.5000917999987,None,205.50071019999996,None,205.50071019999996,None,left,0,0.4088492999999289,205.50071019999996,None,stimuli/slot2_up.jpg,0,1,0,205.99433669999962,None,205.99433669999962,None,4200,self avoid win,0,206.99942249999913,None,00,2021_Feb_28_1628,two-armed-bandit,2020.2.10,60.10554533748281,
0,0,self,win,self_win,1,Play to WIN points,35,stimuli/slot1_up.jpg,1,stimuli/slot2_up.jpg,0,0,1,2,stimuli/slot1_up.jpg,stimuli/slot2_up.jpg,stimuli/slot1_down.jpg,stimuli/slot2_down.jpg,stimuli/slot1_up.jpg,left,,,,,0,35,35,35,208.51440522999982,None,210.02925109999887,None,209.06175129999974,None,209.06175129999974,None,left,1,0.3717934000014793,209.06175129999974,None,stimuli/slot1_up.jpg,1,0,1,209.52248119999967,None,209.52248119999967,None,4300,self win,1,210.53844169999866,None,00,2021_Feb_28_1628,two-armed-bandit,2020.2.10,60.10554533748281,
0,0,self,win,self_win,1,Play to WIN points,36,stimuli/slot1_up.jpg,1,stimuli/slot2_up.jpg,0,0,1,2,stimuli/slot1_up.jpg,stimuli/slot2_up.jpg,stimuli/slot1_down.jpg,stimuli/slot2_down.jpg,stimuli/slot1_up.jpg,left,,,,,0,36,36,36,212.04370242999866,None,213.74146519999886,None,212.59112229999846,None,212.59112229999846,None,right,0,0.5804879999996047,212.59112229999846,None,stimuli/slot2_up.jpg,0,1,0,213.2426263999987,None,213.2426263999987,None,4300,self avoid win,0,214.24986949999948,None,00,2021_Feb_28_1628,two-armed-bandit,2020.2.10,60.10554533748281,
0,0,self,win,self_win,1,Play to WIN points,37,stimuli/slot1_up.jpg,0,stimuli/slot2_up.jpg,1,0,1,2,stimuli/slot1_up.jpg,stimuli/slot2_up.jpg,stimuli/slot1_down.jpg,stimuli/slot2_down.jpg,stimuli/slot2_up.jpg,right,,,,,0,37,37,37,215.75606102999845,None,218.0033131,None,216.32215369999903,None,216.32215369999903,None,left,0,1.103055300000051,216.32215369999903,None,stimuli/slot1_up.jpg,1,0,1,217.50266069999998,None,217.50266069999998,None,4300,self avoid win,0,218.50263399999858,None,00,2021_Feb_28_1628,two-armed-bandit,2020.2.10,60.10554533748281,
0,0,self,win,self_win,1,Play to WIN points,38,stimuli/slot1_up.jpg,1,stimuli/slot2_up.jpg,0,1,2,1,stimuli/slot2_up.jpg,stimuli/slot1_up.jpg,stimuli/slot2_down.jpg,stimuli/slot1_down.jpg,stimuli/slot1_up.jpg,right,,,,,0,38,38,38,220.0171586299999,None,221.63235469999927,None,220.56756929999938,None,220.56756929999938,None,right,1,0.5003721000011865,220.56756929999938,None,stimuli/slot1_up.jpg,1,0,1,221.12838239999837,None,221.12838239999837,None,4400,self win,1,222.13873520000016,None,00,2021_Feb_28_1628,two-armed-bandit,2020.2.10,60.10554533748281,
0,0,self,win,self_win,1,Play to WIN points,39,stimuli/slot1_up.jpg,1,stimuli/slot2_up.jpg,0,1,2,1,stimuli/slot2_up.jpg,stimuli/slot1_up.jpg,stimuli/slot2_down.jpg,stimuli/slot1_down.jpg,stimuli/slot1_up.jpg,right,,,,,0,39,39,39,223.64675422999935,None,225.41126809999878,None,224.196068199999,None,224.196068199999,None,right,1,0.6435810000002675,224.196068199999,None,stimuli/slot1_up.jpg,1,0,1,224.9114011999991,None,224.9114011999991,None,4500,self win,1,225.91085679999924,None,00,2021_Feb_28_1628,two-armed-bandit,2020.2.10,60.10554533748281,
0,0,self,win,self_win,1,Play to WIN points,40,stimuli/slot1_up.jpg,1,stimuli/slot2_up.jpg,0,0,1,2,stimuli/slot1_up.jpg,stimuli/slot2_up.jpg,stimuli/slot1_down.jpg,stimuli/slot2_down.jpg,stimuli/slot1_up.jpg,left,,,,,0,40,40,40,227.4258608299984,None,229.32329969999955,None,227.97363029999906,None,227.97363029999906,None,left,1,0.7546913999995013,227.97363029999906,None,stimuli/slot1_up.jpg,1,0,1,228.80926809999983,None,228.80926809999983,None,4600,self win,1,229.8230995999984,None,00,2021_Feb_28_1628,two-armed-bandit,2020.2.10,60.10554533748281,
0,0,self,win,self_win,1,Play to WIN points,41,stimuli/slot1_up.jpg,1,stimuli/slot2_up.jpg,0,1,2,1,stimuli/slot2_up.jpg,stimuli/slot1_up.jpg,stimuli/slot2_down.jpg,stimuli/slot1_down.jpg,stimuli/slot1_up.jpg,right,,,,,0,41,41,41,231.33794582999835,None,233.06896979999874,None,231.8864171999994,None,231.8864171999994,None,left,0,0.6164248000004591,231.8864171999994,None,stimuli/slot2_up.jpg,0,1,0,232.56969079999908,None,232.56969079999908,None,4600,self avoid win,0,233.57609479999883,None,00,2021_Feb_28_1628,two-armed-bandit,2020.2.10,60.10554533748281,
0,0,self,win,self_win,1,Play to WIN points,42,stimuli/slot1_up.jpg,1,stimuli/slot2_up.jpg,0,1,2,1,stimuli/slot2_up.jpg,stimuli/slot1_up.jpg,stimuli/slot2_down.jpg,stimuli/slot1_down.jpg,stimuli/slot1_up.jpg,right,,,,,0,42,42,42,235.08359072999846,None,236.58170679999967,None,235.64337479999995,None,235.64337479999995,None,right,1,0.3252263000013045,235.64337479999995,None,stimuli/slot1_up.jpg,1,0,1,236.06748609999886,None,236.06748609999886,None,4700,self win,1,237.0897991999991,None,00,2021_Feb_28_1628,two-armed-bandit,2020.2.10,60.10554533748281,
0,0,self,win,self_win,1,Play to WIN points,43,stimuli/slot1_up.jpg,0,stimuli/slot2_up.jpg,1,1,2,1,stimuli/slot2_up.jpg,stimuli/slot1_up.jpg,stimuli/slot2_down.jpg,stimuli/slot1_down.jpg,stimuli/slot2_up.jpg,left,,,,,0,43,43,43,238.59607252999885,None,240.0778156999986,None,239.14617269999871,None,239.14617269999871,None,right,0,0.35543049999978393,239.14617269999871,None,stimuli/slot1_up.jpg,1,0,1,239.57751169999938,None,239.57751169999938,None,4700,self avoid win,0,240.58776579999903,None,00,2021_Feb_28_1628,two-armed-bandit,2020.2.10,60.10554533748281,
0,0,self,win,self_win,1,Play to WIN points,44,stimuli/slot1_up.jpg,1,stimuli/slot2_up.jpg,0,0,1,2,stimuli/slot1_up.jpg,stimuli/slot2_up.jpg,stimuli/slot1_down.jpg,stimuli/slot2_down.jpg,stimuli/slot1_up.jpg,left,,,,,0,44,44,44,242.09203812999985,None,243.52376839999852,None,242.64068509999925,None,242.64068509999925,None,left,1,0.2988177999995969,242.64068509999925,None,stimuli/slot1_up.jpg,1,0,1,243.01077799999985,None,243.01077799999985,None,4800,self win,1,244.03059399999984,None,00,2021_Feb_28_1628,two-armed-bandit,2020.2.10,60.10554533748281,
0,0,self,win,self_win,1,Play to WIN points,45,stimuli/slot1_up.jpg,0,stimuli/slot2_up.jpg,1,1,2,1,stimuli/slot2_up.jpg,stimuli/slot1_up.jpg,stimuli/slot2_down.jpg,stimuli/slot1_down.jpg,stimuli/slot2_up.jpg,left,,,,,0,45,45,45,245.53806542999845,None,246.9698129999997,None,246.08621399999902,None,246.08621399999902,None,right,0,0.2922331999998278,246.08621399999902,None,stimuli/slot1_up.jpg,1,0,1,246.45512439999948,None,246.45512439999948,None,4800,self avoid win,0,247.4767422999994,None,00,2021_Feb_28_1628,two-armed-bandit,2020.2.10,60.10554533748281,
0,0,self,win,self_win,1,Play to WIN points,46,stimuli/slot1_up.jpg,0,stimuli/slot2_up.jpg,1,0,1,2,stimuli/slot1_up.jpg,stimuli/slot2_up.jpg,stimuli/slot1_down.jpg,stimuli/slot2_down.jpg,stimuli/slot2_up.jpg,right,,,,,0,46,46,46,248.98409712999964,None,251.3979733999986,None,249.5370804999984,None,249.5370804999984,None,left,0,1.2845724999988306,249.5370804999984,None,stimuli/slot1_up.jpg,1,0,1,250.887853799999,None,250.887853799999,None,4800,self avoid win,0,251.89773950000017,None,00,2021_Feb_28_1628,two-armed-bandit,2020.2.10,60.10554533748281,
0,0,self,win,self_win,1,Play to WIN points,47,stimuli/slot1_up.jpg,1,stimuli/slot2_up.jpg,0,1,2,1,stimuli/slot2_up.jpg,stimuli/slot1_up.jpg,stimuli/slot2_down.jpg,stimuli/slot1_down.jpg,stimuli/slot1_up.jpg,right,,,,,0,47,47,47,253.41199552999896,None,254.97727289999966,None,253.94983599999978,None,253.94983599999978,None,right,1,0.4352323000002798,253.94983599999978,None,stimuli/slot1_up.jpg,1,0,1,254.46284379999997,None,254.46284379999997,None,4900,self win,1,255.48520800000006,None,00,2021_Feb_28_1628,two-armed-bandit,2020.2.10,60.10554533748281,
0,0,self,win,self_win,1,Play to WIN points,48,stimuli/slot1_up.jpg,1,stimuli/slot2_up.jpg,0,1,2,1,stimuli/slot2_up.jpg,stimuli/slot1_up.jpg,stimuli/slot2_down.jpg,stimuli/slot1_down.jpg,stimuli/slot1_up.jpg,right,,,,,0,48,48,48,256.99179522999987,None,258.5231662999995,None,257.542415599999,None,257.542415599999,None,right,1,0.40928939999867,257.542415599999,None,stimuli/slot1_up.jpg,1,0,1,258.0237154999995,None,258.0237154999995,None,5000,self win,1,259.02255109999896,None,00,2021_Feb_28_1628,two-armed-bandit,2020.2.10,60.10554533748281,
0,0,self,win,self_win,1,Play to WIN points,49,stimuli/slot1_up.jpg,1,stimuli/slot2_up.jpg,0,1,2,1,stimuli/slot2_up.jpg,stimuli/slot1_up.jpg,stimuli/slot2_down.jpg,stimuli/slot1_down.jpg,stimuli/slot1_up.jpg,right,,,,,0,49,49,49,260.53742382999883,None,262.3685571999995,None,261.0841638999991,None,261.0841638999991,None,left,0,0.6907513000005565,261.0841638999991,None,stimuli/slot2_up.jpg,0,1,0,261.85469980000016,None,261.85469980000016,None,5000,self avoid win,0,262.86890929999936,None,00,2021_Feb_28_1628,two-armed-bandit,2020.2.10,60.10554533748281,
0,0,self,win,self_win,1,Play to WIN points,50,stimuli/slot1_up.jpg,1,stimuli/slot2_up.jpg,0,1,2,1,stimuli/slot2_up.jpg,stimuli/slot1_up.jpg,stimuli/slot2_down.jpg,stimuli/slot1_down.jpg,stimuli/slot1_up.jpg,right,,,,,0,50,50,50,264.3831956299997,None,265.66489179999917,None,264.9282098999993,None,264.9282098999993,None,right,1,0.1536644999996497,264.9282098999993,None,stimuli/slot1_up.jpg,1,0,1,265.1645678999994,None,265.1645678999994,None,5100,self win,1,266.17255379999915,None,00,2021_Feb_28_1628,two-armed-bandit,2020.2.10,60.10554533748281,
0,0,self,win,self_win,1,Play to WIN points,51,stimuli/slot1_up.jpg,0,stimuli/slot2_up.jpg,1,1,2,1,stimuli/slot2_up.jpg,stimuli/slot1_up.jpg,stimuli/slot2_down.jpg,stimuli/slot1_down.jpg,stimuli/slot2_up.jpg,left,,,,,0,51,51,51,267.6791770299984,None,270.79223679999996,None,268.2277772999987,None,268.2277772999987,None,None,0,,268.2277772999987,None,,,,,270.2907295999994,None,270.2907295999994,None,5100,missed,,271.30764929999896,None,00,2021_Feb_28_1628,two-armed-bandit,2020.2.10,60.10554533748281,
0,0,self,win,self_win,1,Play to WIN points,52,stimuli/slot1_up.jpg,1,stimuli/slot2_up.jpg,0,0,1,2,stimuli/slot1_up.jpg,stimuli/slot2_up.jpg,stimuli/slot1_down.jpg,stimuli/slot2_down.jpg,stimuli/slot1_up.jpg,left,,,,,0,52,52,52,272.82359402999975,None,274.2215338999995,None,273.3720108999987,None,273.3720108999987,None,right,0,0.27378909999970347,273.3720108999987,None,stimuli/slot2_up.jpg,0,1,0,273.722797299999,None,273.722797299999,None,5100,self avoid win,0,274.73733809999976,None,00,2021_Feb_28_1628,two-armed-bandit,2020.2.10,60.10554533748281,
0,0,self,win,self_win,1,Play to WIN points,53,stimuli/slot1_up.jpg,1,stimuli/slot2_up.jpg,0,0,1,2,stimuli/slot1_up.jpg,stimuli/slot2_up.jpg,stimuli/slot1_down.jpg,stimuli/slot2_down.jpg,stimuli/slot1_up.jpg,left,,,,,0,53,53,53,276.25278232999847,None,278.06724140000006,None,276.8011738999994,None,276.8011738999994,None,left,1,0.6817293000003701,276.8011738999994,None,stimuli/slot1_up.jpg,1,0,1,277.55593579999913,None,277.55593579999913,None,5200,self win,1,278.5755735999992,None,00,2021_Feb_28_1628,two-armed-bandit,2020.2.10,60.10554533748281,
0,0,self,win,self_win,1,Play to WIN points,54,stimuli/slot1_up.jpg,1,stimuli/slot2_up.jpg,0,1,2,1,stimuli/slot2_up.jpg,stimuli/slot1_up.jpg,stimuli/slot2_down.jpg,stimuli/slot1_down.jpg,stimuli/slot1_up.jpg,right,,,,,0,54,54,54,280.08166262999987,None,281.6297018999994,None,280.6276840999999,None,280.6276840999999,None,right,1,0.41884419999951206,280.6276840999999,None,stimuli/slot1_up.jpg,1,0,1,281.11610719999953,None,281.11610719999953,None,5300,self win,1,282.12938659999963,None,00,2021_Feb_28_1628,two-armed-bandit,2020.2.10,60.10554533748281,
0,0,self,win,self_win,1,Play to WIN points,55,stimuli/slot1_up.jpg,1,stimuli/slot2_up.jpg,0,1,2,1,stimuli/slot2_up.jpg,stimuli/slot1_up.jpg,stimuli/slot2_down.jpg,stimuli/slot1_down.jpg,stimuli/slot1_up.jpg,right,,,,,0,55,55,55,283.6438150299997,None,285.25866589999896,None,284.1918726999993,None,284.1918726999993,None,left,0,0.4765299999999115,284.1918726999993,None,stimuli/slot2_up.jpg,0,1,0,284.7442246999999,None,284.7442246999999,None,5300,self avoid win,0,285.7669528999995,None,00,2021_Feb_28_1628,two-armed-bandit,2020.2.10,60.10554533748281,
0,0,self,win,self_win,1,Play to WIN points,56,stimuli/slot1_up.jpg,0,stimuli/slot2_up.jpg,1,0,1,2,stimuli/slot1_up.jpg,stimuli/slot2_up.jpg,stimuli/slot1_down.jpg,stimuli/slot2_down.jpg,stimuli/slot2_up.jpg,right,,,,,0,56,56,56,287.27319472999955,None,288.6211339999991,None,287.822044999999,None,287.822044999999,None,right,1,0.23555800000031013,287.822044999999,None,stimuli/slot2_up.jpg,0,1,0,288.12166929999876,None,288.12166929999876,None,5400,self win,1,289.1308896999999,None,00,2021_Feb_28_1628,two-armed-bandit,2020.2.10,60.10554533748281,
0,0,self,win,self_win,1,Play to WIN points,57,stimuli/slot1_up.jpg,0,stimuli/slot2_up.jpg,1,0,1,2,stimuli/slot1_up.jpg,stimuli/slot2_up.jpg,stimuli/slot1_down.jpg,stimuli/slot2_down.jpg,stimuli/slot2_up.jpg,right,,,,,0,57,57,57,290.63596932999974,None,292.0677480999984,None,291.1792147999986,None,291.1792147999986,None,right,1,0.30596909999985655,291.1792147999986,None,stimuli/slot2_up.jpg,0,1,0,291.5571697999985,None,291.5571697999985,None,5500,self win,1,292.56743239999923,None,00,2021_Feb_28_1628,two-armed-bandit,2020.2.10,60.10554533748281,
0,0,self,win,self_win,1,Play to WIN points,58,stimuli/slot1_up.jpg,1,stimuli/slot2_up.jpg,0,0,1,2,stimuli/slot1_up.jpg,stimuli/slot2_up.jpg,stimuli/slot1_down.jpg,stimuli/slot2_down.jpg,stimuli/slot1_up.jpg,left,,,,,0,58,58,58,294.08226892999994,None,295.6135040999998,None,294.6316250999989,None,294.6316250999989,None,right,0,0.4010834000000614,294.6316250999989,None,stimuli/slot2_up.jpg,0,1,0,295.1003189999992,None,295.1003189999992,None,5500,self avoid win,0,296.1205465999992,None,00,2021_Feb_28_1628,two-armed-bandit,2020.2.10,60.10554533748281,
0,0,self,win,self_win,1,Play to WIN points,59,stimuli/slot1_up.jpg,1,stimuli/slot2_up.jpg,0,1,2,1,stimuli/slot2_up.jpg,stimuli/slot1_up.jpg,stimuli/slot2_down.jpg,stimuli/slot1_down.jpg,stimuli/slot1_up.jpg,right,,,,,0,59,59,59,297.62785442999996,None,299.1262291999992,None,298.17332559999886,None,298.17332559999886,None,right,1,0.3880153000009159,298.17332559999886,None,stimuli/slot1_up.jpg,1,0,1,298.62327729999924,None,298.62327729999924,None,5600,self win,1,299.6344887999985,None,00,2021_Feb_28_1628,two-armed-bandit,2020.2.10,60.10554533748281,
0,0,self,win,self_win,1,Play to WIN points,60,stimuli/slot1_up.jpg,1,stimuli/slot2_up.jpg,0,1,2,1,stimuli/slot2_up.jpg,stimuli/slot1_up.jpg,stimuli/slot2_down.jpg,stimuli/slot1_down.jpg,stimuli/slot1_up.jpg,right,,,,,0,60,60,60,301.14050332999943,None,302.6886605999989,None,301.6888433999993,None,301.6888433999993,None,right,1,0.3035338000008778,301.6888433999993,None,stimuli/slot1_up.jpg,1,0,1,302.1867945999984,None,302.1867945999984,None,5700,self win,1,303.1882661999989,None,00,2021_Feb_28_1628,two-armed-bandit,2020.2.10,60.10554533748281,
0,0,self,win,self_win,1,Play to WIN points,61,stimuli/slot1_up.jpg,0,stimuli/slot2_up.jpg,1,1,2,1,stimuli/slot2_up.jpg,stimuli/slot1_up.jpg,stimuli/slot2_down.jpg,stimuli/slot1_down.jpg,stimuli/slot2_up.jpg,left,,,,,0,61,61,61,304.7029055299987,None,306.2012483999988,None,305.25028399999974,None,305.25028399999974,None,right,0,0.3784256999988429,305.25028399999974,None,stimuli/slot1_up.jpg,1,0,1,305.70220809999955,None,305.70220809999955,None,5700,self avoid win,0,306.7075791999996,None,00,2021_Feb_28_1628,two-armed-bandit,2020.2.10,60.10554533748281,
0,0,self,win,self_win,1,Play to WIN points,62,stimuli/slot1_up.jpg,1,stimuli/slot2_up.jpg,0,1,2,1,stimuli/slot2_up.jpg,stimuli/slot1_up.jpg,stimuli/slot2_down.jpg,stimuli/slot1_down.jpg,stimuli/slot1_up.jpg,right,,,,,0,62,62,62,308.21589322999864,None,309.9464348999991,None,308.766587099999,None,308.766587099999,None,left,0,0.6111949000005552,308.766587099999,None,stimuli/slot2_up.jpg,0,1,0,309.4424997999995,None,309.4424997999995,None,5700,self avoid win,0,310.4459321999984,None,00,2021_Feb_28_1628,two-armed-bandit,2020.2.10,60.10554533748281,
0,0,self,win,self_win,1,Play to WIN points,63,stimuli/slot1_up.jpg,1,stimuli/slot2_up.jpg,0,0,1,2,stimuli/slot1_up.jpg,stimuli/slot2_up.jpg,stimuli/slot1_down.jpg,stimuli/slot2_down.jpg,stimuli/slot1_up.jpg,left,,,,,0,63,63,63,311.9613039299999,None,313.3596121999999,None,312.5077524999997,None,312.5077524999997,None,right,0,0.2597710999998526,312.5077524999997,None,stimuli/slot2_up.jpg,0,1,0,312.84512939999877,None,312.84512939999877,None,5700,self avoid win,0,313.8591574999991,None,00,2021_Feb_28_1628,two-armed-bandit,2020.2.10,60.10554533748281,
0,0,self,win,self_win,1,Play to WIN points,64,stimuli/slot1_up.jpg,1,stimuli/slot2_up.jpg,0,0,1,2,stimuli/slot1_up.jpg,stimuli/slot2_up.jpg,stimuli/slot1_down.jpg,stimuli/slot2_down.jpg,stimuli/slot1_up.jpg,left,,,,,0,64,64,64,315.3739592299986,None,316.9886112999993,None,315.9233543999999,None,315.9233543999999,None,left,1,0.48096000000077765,315.9233543999999,None,stimuli/slot1_up.jpg,1,0,1,316.48469169999953,None,316.48469169999953,None,5800,self win,1,317.49699599999985,None,00,2021_Feb_28_1628,two-armed-bandit,2020.2.10,60.10554533748281,
0,0,self,win,self_win,1,Play to WIN points,65,stimuli/slot1_up.jpg,1,stimuli/slot2_up.jpg,0,0,1,2,stimuli/slot1_up.jpg,stimuli/slot2_up.jpg,stimuli/slot1_down.jpg,stimuli/slot2_down.jpg,stimuli/slot1_up.jpg,left,,,,,0,65,65,65,319.0033683299986,None,320.50127169999905,None,319.5572324999994,None,319.5572324999994,None,left,1,0.3547982000000047,319.5572324999994,None,stimuli/slot1_up.jpg,1,0,1,319.98800459999984,None,319.98800459999984,None,5900,self win,1,321.0008558999998,None,00,2021_Feb_28_1628,two-armed-bandit,2020.2.10,60.10554533748281,
0,0,self,win,self_win,1,Play to WIN points,66,stimuli/slot1_up.jpg,1,stimuli/slot2_up.jpg,0,1,2,1,stimuli/slot2_up.jpg,stimuli/slot1_up.jpg,stimuli/slot2_down.jpg,stimuli/slot1_down.jpg,stimuli/slot1_up.jpg,right,,,,,0,66,66,66,322.5159610299994,None,323.9803437999999,None,323.06587819999913,None,323.06587819999913,None,right,1,0.34862780000003113,323.06587819999913,None,stimuli/slot1_up.jpg,1,0,1,323.4783407999985,None,323.4783407999985,None,6000,self win,1,324.48013999999966,None,00,2021_Feb_28_1628,two-armed-bandit,2020.2.10,60.10554533748281,
0,0,self,win,self_win,1,Play to WIN points,67,stimuli/slot1_up.jpg,1,stimuli/slot2_up.jpg,0,0,1,2,stimuli/slot1_up.jpg,stimuli/slot2_up.jpg,stimuli/slot1_down.jpg,stimuli/slot2_down.jpg,stimuli/slot1_up.jpg,left,,,,,0,67,67,67,325.99509072999865,None,327.5266221999991,None,326.542784199999,None,326.542784199999,None,left,1,0.38963569999941683,326.542784199999,None,stimuli/slot1_up.jpg,1,0,1,327.0217574999988,None,327.0217574999988,None,6100,self win,1,328.0261167999997,None,00,2021_Feb_28_1628,two-armed-bandit,2020.2.10,60.10554533748281,
0,0,self,win,self_win,1,Play to WIN points,68,stimuli/slot1_up.jpg,0,stimuli/slot2_up.jpg,1,0,1,2,stimuli/slot1_up.jpg,stimuli/slot2_up.jpg,stimuli/slot1_down.jpg,stimuli/slot2_down.jpg,stimuli/slot2_up.jpg,right,,,,,0,68,68,68,329.5411408299984,None,331.30571989999953,None,330.0851131999989,None,330.0851131999989,None,left,0,0.6507115999993403,330.0851131999989,None,stimuli/slot1_up.jpg,1,0,1,330.8055285999999,None,330.8055285999999,None,6100,self avoid win,0,331.8134326999989,None,00,2021_Feb_28_1628,two-armed-bandit,2020.2.10,60.10554533748281,
0,0,self,win,self_win,1,Play to WIN points,69,stimuli/slot1_up.jpg,0,stimuli/slot2_up.jpg,1,1,2,1,stimuli/slot2_up.jpg,stimuli/slot1_up.jpg,stimuli/slot2_down.jpg,stimuli/slot1_down.jpg,stimuli/slot2_up.jpg,left,,,,,0,69,69,69,333.32004642999857,None,334.8013852999993,None,333.87812049999957,None,333.87812049999957,None,right,0,0.3503772999993089,333.87812049999957,None,stimuli/slot1_up.jpg,1,0,1,334.3015384999999,None,334.3015384999999,None,6100,self avoid win,0,335.3010233999994,None,00,2021_Feb_28_1628,two-armed-bandit,2020.2.10,60.10554533748281,
0,0,self,win,self_win,1,Play to WIN points,70,stimuli/slot1_up.jpg,1,stimuli/slot2_up.jpg,0,0,1,2,stimuli/slot1_up.jpg,stimuli/slot2_up.jpg,stimuli/slot1_down.jpg,stimuli/slot2_down.jpg,stimuli/slot1_up.jpg,left,,,,,0,70,70,70,336.8160053299995,None,338.4972547999987,None,337.36581489999844,None,337.36581489999844,None,left,1,0.5424905999989278,337.36581489999844,None,stimuli/slot1_up.jpg,1,0,1,337.9838208000001,None,337.9838208000001,None,6200,self win,1,339.0054505999997,None,00,2021_Feb_28_1628,two-armed-bandit,2020.2.10,60.10554533748281,
0,0,self,win,self_win,1,Play to WIN points,71,stimuli/slot1_up.jpg,1,stimuli/slot2_up.jpg,0,1,2,1,stimuli/slot2_up.jpg,stimuli/slot1_up.jpg,stimuli/slot2_down.jpg,stimuli/slot1_down.jpg,stimuli/slot1_up.jpg,right,,,,,0,71,71,71,340.5112257299985,None,342.0432887999996,None,341.0292871999991,None,341.0292871999991,None,right,1,0.43682760000046983,341.0292871999991,None,stimuli/slot1_up.jpg,1,0,1,341.54400480000004,None,341.54400480000004,None,6300,self win,1,342.54278349999913,None,00,2021_Feb_28_1628,two-armed-bandit,2020.2.10,60.10554533748281,
