key_resp.keys,key_resp.corr,key_resp.rt,chosen_stim_name,chosen_stim_0,chosen_stim_1,true_accuracy,cumulativePts_self,cumulativePts_social,outcomeDescr,practice_round.thisRepN,practice_round.thisTrialN,practice_round.thisN,practice_round.thisIndex,practice_round.ran,index,condition,goal,block,block_num,block_instr_text,trial_num,stim_0,stim_0_value,stim_1,stim_1_value,position_changed,stim_left,stim_right,stim_left_name,stim_right_name,optimal_stim,optimal_choice,participant,date,expName,psychopyVersion,OS,frameRate,outcome,trials.thisRepN,trials.thisTrialN,trials.thisN,trials.thisIndex,trials.ran,subject,order_num,session
left,0,0.546,stimuli/tunga_21.bmp,0,1,0,1000,1000,practice,0,0,0,0,1,100,practice,win,practice_win,1,Play to WIN points,0,stimuli/tunga_22.bmp,1,stimuli/tunga_21.bmp,0,1,21,22,stimuli/tunga_21.bmp,stimuli/tunga_22.bmp,stimuli/tunga_22.bmp,right,2,2021-04-05_13h12.00.240,psyc-347-prosocial-learning,2020.2.4post1,Win32,60,,,,,,,,,
right,1,0.304,stimuli/tunga_22.bmp,1,0,1,1000,1000,practice,0,1,1,1,1,101,practice,win,practice_win,1,Play to WIN points,1,stimuli/tunga_22.bmp,1,stimuli/tunga_21.bmp,0,1,21,22,stimuli/tunga_21.bmp,stimuli/tunga_22.bmp,stimuli/tunga_22.bmp,right,2,2021-04-05_13h12.00.240,psyc-347-prosocial-learning,2020.2.4post1,Win32,60,,,,,,,,,
left,0,0.387,stimuli/tunga_22.bmp,1,0,1,1000,1000,practice,0,2,2,2,1,102,practice,win,practice_win,1,Play to WIN points,2,stimuli/tunga_22.bmp,0,stimuli/tunga_21.bmp,1,0,22,21,stimuli/tunga_22.bmp,stimuli/tunga_21.bmp,stimuli/tunga_21.bmp,right,2,2021-04-05_13h12.00.240,psyc-347-prosocial-learning,2020.2.4post1,Win32,60,,,,,,,,,
left,1,0.455,stimuli/tunga_22.bmp,1,0,1,1000,1000,practice,0,3,3,3,1,103,practice,win,practice_win,1,Play to WIN points,3,stimuli/tunga_22.bmp,1,stimuli/tunga_21.bmp,0,0,22,21,stimuli/tunga_22.bmp,stimuli/tunga_21.bmp,stimuli/tunga_22.bmp,left,2,2021-04-05_13h12.00.240,psyc-347-prosocial-learning,2020.2.4post1,Win32,60,,,,,,,,,
right,0,0.352,stimuli/tunga_22.bmp,1,0,1,1000,1000,practice,0,4,4,4,1,104,practice,win,practice_win,1,Play to WIN points,4,stimuli/tunga_22.bmp,0,stimuli/tunga_21.bmp,1,1,21,22,stimuli/tunga_21.bmp,stimuli/tunga_22.bmp,stimuli/tunga_21.bmp,left,2,2021-04-05_13h12.00.240,psyc-347-prosocial-learning,2020.2.4post1,Win32,60,,,,,,,,,
left,1,0.335,stimuli/tunga_22.bmp,1,0,1,1000,1000,practice,0,5,5,5,1,105,practice,win,practice_win,1,Play to WIN points,5,stimuli/tunga_22.bmp,1,stimuli/tunga_21.bmp,0,0,22,21,stimuli/tunga_22.bmp,stimuli/tunga_21.bmp,stimuli/tunga_22.bmp,left,2,2021-04-05_13h12.00.240,psyc-347-prosocial-learning,2020.2.4post1,Win32,60,,,,,,,,,
right,1,0.306,stimuli/tunga_22.bmp,1,0,1,1000,1000,practice,0,6,6,6,1,106,practice,win,practice_win,1,Play to WIN points,6,stimuli/tunga_22.bmp,1,stimuli/tunga_21.bmp,0,1,21,22,stimuli/tunga_21.bmp,stimuli/tunga_22.bmp,stimuli/tunga_22.bmp,right,2,2021-04-05_13h12.00.240,psyc-347-prosocial-learning,2020.2.4post1,Win32,60,,,,,,,,,
left,1,0.339,stimuli/tunga_22.bmp,1,0,1,1000,1000,practice,0,7,7,7,1,107,practice,win,practice_win,1,Play to WIN points,7,stimuli/tunga_22.bmp,1,stimuli/tunga_21.bmp,0,0,22,21,stimuli/tunga_22.bmp,stimuli/tunga_21.bmp,stimuli/tunga_22.bmp,left,2,2021-04-05_13h12.00.240,psyc-347-prosocial-learning,2020.2.4post1,Win32,60,,,,,,,,,
left,1,0.394,stimuli/tunga_23.bmp,1,0,0,1000,1000,practice,0,8,8,8,1,108,practice,avoidloss,practice_avoidloss,3,Play to AVOID LOSING points,0,stimuli/tunga_23.bmp,0,stimuli/tunga_24.bmp,-1,0,23,24,stimuli/tunga_23.bmp,stimuli/tunga_24.bmp,stimuli/tunga_23.bmp,left,2,2021-04-05_13h12.00.240,psyc-347-prosocial-learning,2020.2.4post1,Win32,60,,,,,,,,,
right,1,0.38,stimuli/tunga_24.bmp,0,1,1,1000,1000,practice,0,9,9,9,1,109,practice,avoidloss,practice_avoidloss,3,Play to AVOID LOSING points,1,stimuli/tunga_23.bmp,-1,stimuli/tunga_24.bmp,0,0,23,24,stimuli/tunga_23.bmp,stimuli/tunga_24.bmp,stimuli/tunga_24.bmp,right,2,2021-04-05_13h12.00.240,psyc-347-prosocial-learning,2020.2.4post1,Win32,60,,,,,,,,,
left,1,0.513,stimuli/tunga_24.bmp,0,1,1,1000,1000,practice,0,10,10,10,1,110,practice,avoidloss,practice_avoidloss,3,Play to AVOID LOSING points,2,stimuli/tunga_23.bmp,-1,stimuli/tunga_24.bmp,0,1,24,23,stimuli/tunga_24.bmp,stimuli/tunga_23.bmp,stimuli/tunga_24.bmp,left,2,2021-04-05_13h12.00.240,psyc-347-prosocial-learning,2020.2.4post1,Win32,60,,,,,,,,,
left,0,0.38,stimuli/tunga_24.bmp,0,1,1,1000,1000,practice,0,11,11,11,1,111,practice,avoidloss,practice_avoidloss,3,Play to AVOID LOSING points,3,stimuli/tunga_23.bmp,0,stimuli/tunga_24.bmp,-1,1,24,23,stimuli/tunga_24.bmp,stimuli/tunga_23.bmp,stimuli/tunga_23.bmp,right,2,2021-04-05_13h12.00.240,psyc-347-prosocial-learning,2020.2.4post1,Win32,60,,,,,,,,,
left,0,0.632,stimuli/tunga_23.bmp,1,0,0,1000,1000,practice,0,12,12,12,1,112,practice,avoidloss,practice_avoidloss,3,Play to AVOID LOSING points,4,stimuli/tunga_23.bmp,-1,stimuli/tunga_24.bmp,0,0,23,24,stimuli/tunga_23.bmp,stimuli/tunga_24.bmp,stimuli/tunga_24.bmp,right,2,2021-04-05_13h12.00.240,psyc-347-prosocial-learning,2020.2.4post1,Win32,60,,,,,,,,,
left,0,0.446,stimuli/tunga_23.bmp,1,0,0,1000,1000,practice,0,13,13,13,1,113,practice,avoidloss,practice_avoidloss,3,Play to AVOID LOSING points,5,stimuli/tunga_23.bmp,-1,stimuli/tunga_24.bmp,0,0,23,24,stimuli/tunga_23.bmp,stimuli/tunga_24.bmp,stimuli/tunga_24.bmp,right,2,2021-04-05_13h12.00.240,psyc-347-prosocial-learning,2020.2.4post1,Win32,60,,,,,,,,,
left,1,0.399,stimuli/tunga_24.bmp,0,1,1,1000,1000,practice,0,14,14,14,1,114,practice,avoidloss,practice_avoidloss,3,Play to AVOID LOSING points,6,stimuli/tunga_23.bmp,-1,stimuli/tunga_24.bmp,0,1,24,23,stimuli/tunga_24.bmp,stimuli/tunga_23.bmp,stimuli/tunga_24.bmp,left,2,2021-04-05_13h12.00.240,psyc-347-prosocial-learning,2020.2.4post1,Win32,60,,,,,,,,,
left,1,0.952,stimuli/tunga_24.bmp,0,1,1,1000,1000,practice,0,15,15,15,1,115,practice,avoidloss,practice_avoidloss,3,Play to AVOID LOSING points,7,stimuli/tunga_23.bmp,-1,stimuli/tunga_24.bmp,0,1,24,23,stimuli/tunga_24.bmp,stimuli/tunga_23.bmp,stimuli/tunga_24.bmp,left,2,2021-04-05_13h12.00.240,psyc-347-prosocial-learning,2020.2.4post1,Win32,60,,,,,,,,,
left,1,0.317,stimuli/tunga_02.bmp,1,0,1,1100,1000,self win,,,,,,0,self,win,self_win,0,"Play to WIN points

for YOURSELF",0,stimuli/tunga_02.bmp,1,stimuli/tunga_04.bmp,0,0,2,4,stimuli/tunga_02.bmp,stimuli/tunga_04.bmp,stimuli/tunga_02.bmp,left,2,2021-04-05_13h12.00.240,psyc-347-prosocial-learning,2020.2.4post1,Win32,60,1,0,0,0,0,1,13,0,0
left,1,0.381,stimuli/tunga_02.bmp,1,0,1,1200,1000,self win,,,,,,1,self,win,self_win,0,"Play to WIN points

for YOURSELF",1,stimuli/tunga_02.bmp,1,stimuli/tunga_04.bmp,0,0,2,4,stimuli/tunga_02.bmp,stimuli/tunga_04.bmp,stimuli/tunga_02.bmp,left,2,2021-04-05_13h12.00.240,psyc-347-prosocial-learning,2020.2.4post1,Win32,60,1,0,1,1,1,1,13,0,0
left,1,0.366,stimuli/tunga_02.bmp,1,0,1,1300,1000,self win,,,,,,2,self,win,self_win,0,"Play to WIN points

for YOURSELF",2,stimuli/tunga_02.bmp,1,stimuli/tunga_04.bmp,0,0,2,4,stimuli/tunga_02.bmp,stimuli/tunga_04.bmp,stimuli/tunga_02.bmp,left,2,2021-04-05_13h12.00.240,psyc-347-prosocial-learning,2020.2.4post1,Win32,60,1,0,2,2,2,1,13,0,0
right,0,0.456,stimuli/tunga_04.bmp,0,1,0,1300,1000,self avoid win,,,,,,3,self,win,self_win,0,"Play to WIN points

for YOURSELF",3,stimuli/tunga_02.bmp,1,stimuli/tunga_04.bmp,0,0,2,4,stimuli/tunga_02.bmp,stimuli/tunga_04.bmp,stimuli/tunga_02.bmp,left,2,2021-04-05_13h12.00.240,psyc-347-prosocial-learning,2020.2.4post1,Win32,60,0,0,3,3,3,1,13,0,0
right,1,0.462,stimuli/tunga_02.bmp,1,0,1,1400,1000,self win,,,,,,4,self,win,self_win,0,"Play to WIN points

for YOURSELF",4,stimuli/tunga_02.bmp,1,stimuli/tunga_04.bmp,0,1,4,2,stimuli/tunga_04.bmp,stimuli/tunga_02.bmp,stimuli/tunga_02.bmp,right,2,2021-04-05_13h12.00.240,psyc-347-prosocial-learning,2020.2.4post1,Win32,60,1,0,4,4,4,1,13,0,0
left,0,0.347,stimuli/tunga_02.bmp,1,0,1,1400,1000,self avoid win,,,,,,5,self,win,self_win,0,"Play to WIN points

for YOURSELF",5,stimuli/tunga_02.bmp,0,stimuli/tunga_04.bmp,1,0,2,4,stimuli/tunga_02.bmp,stimuli/tunga_04.bmp,stimuli/tunga_04.bmp,right,2,2021-04-05_13h12.00.240,psyc-347-prosocial-learning,2020.2.4post1,Win32,60,0,0,5,5,5,1,13,0,0
right,0,0.598,stimuli/tunga_02.bmp,1,0,1,1400,1000,self avoid win,,,,,,6,self,win,self_win,0,"Play to WIN points

for YOURSELF",6,stimuli/tunga_02.bmp,0,stimuli/tunga_04.bmp,1,1,4,2,stimuli/tunga_04.bmp,stimuli/tunga_02.bmp,stimuli/tunga_04.bmp,left,2,2021-04-05_13h12.00.240,psyc-347-prosocial-learning,2020.2.4post1,Win32,60,0,0,6,6,6,1,13,0,0
left,0,0.4,stimuli/tunga_04.bmp,0,1,0,1400,1000,self avoid win,,,,,,7,self,win,self_win,0,"Play to WIN points

for YOURSELF",7,stimuli/tunga_02.bmp,1,stimuli/tunga_04.bmp,0,1,4,2,stimuli/tunga_04.bmp,stimuli/tunga_02.bmp,stimuli/tunga_02.bmp,right,2,2021-04-05_13h12.00.240,psyc-347-prosocial-learning,2020.2.4post1,Win32,60,0,0,7,7,7,1,13,0,0
left,1,0.389,stimuli/tunga_02.bmp,1,0,1,1500,1000,self win,,,,,,8,self,win,self_win,0,"Play to WIN points

for YOURSELF",8,stimuli/tunga_02.bmp,1,stimuli/tunga_04.bmp,0,0,2,4,stimuli/tunga_02.bmp,stimuli/tunga_04.bmp,stimuli/tunga_02.bmp,left,2,2021-04-05_13h12.00.240,psyc-347-prosocial-learning,2020.2.4post1,Win32,60,1,0,8,8,8,1,13,0,0
right,1,0.364,stimuli/tunga_02.bmp,1,0,1,1600,1000,self win,,,,,,9,self,win,self_win,0,"Play to WIN points

for YOURSELF",9,stimuli/tunga_02.bmp,1,stimuli/tunga_04.bmp,0,1,4,2,stimuli/tunga_04.bmp,stimuli/tunga_02.bmp,stimuli/tunga_02.bmp,right,2,2021-04-05_13h12.00.240,psyc-347-prosocial-learning,2020.2.4post1,Win32,60,1,0,9,9,9,1,13,0,0
right,1,0.548,stimuli/tunga_02.bmp,1,0,1,1700,1000,self win,,,,,,10,self,win,self_win,0,"Play to WIN points

for YOURSELF",10,stimuli/tunga_02.bmp,1,stimuli/tunga_04.bmp,0,1,4,2,stimuli/tunga_04.bmp,stimuli/tunga_02.bmp,stimuli/tunga_02.bmp,right,2,2021-04-05_13h12.00.240,psyc-347-prosocial-learning,2020.2.4post1,Win32,60,1,0,10,10,10,1,13,0,0
right,1,0.546,stimuli/tunga_02.bmp,1,0,1,1800,1000,self win,,,,,,11,self,win,self_win,0,"Play to WIN points

for YOURSELF",11,stimuli/tunga_02.bmp,1,stimuli/tunga_04.bmp,0,1,4,2,stimuli/tunga_04.bmp,stimuli/tunga_02.bmp,stimuli/tunga_02.bmp,right,2,2021-04-05_13h12.00.240,psyc-347-prosocial-learning,2020.2.4post1,Win32,60,1,0,11,11,11,1,13,0,0
right,1,0.413,stimuli/tunga_02.bmp,1,0,1,1900,1000,self win,,,,,,12,self,win,self_win,0,"Play to WIN points

for YOURSELF",12,stimuli/tunga_02.bmp,1,stimuli/tunga_04.bmp,0,1,4,2,stimuli/tunga_04.bmp,stimuli/tunga_02.bmp,stimuli/tunga_02.bmp,right,2,2021-04-05_13h12.00.240,psyc-347-prosocial-learning,2020.2.4post1,Win32,60,1,0,12,12,12,1,13,0,0
left,1,0.355,stimuli/tunga_02.bmp,1,0,1,2000,1000,self win,,,,,,13,self,win,self_win,0,"Play to WIN points

for YOURSELF",13,stimuli/tunga_02.bmp,1,stimuli/tunga_04.bmp,0,0,2,4,stimuli/tunga_02.bmp,stimuli/tunga_04.bmp,stimuli/tunga_02.bmp,left,2,2021-04-05_13h12.00.240,psyc-347-prosocial-learning,2020.2.4post1,Win32,60,1,0,13,13,13,1,13,0,0
left,1,0.387,stimuli/tunga_02.bmp,1,0,1,2100,1000,self win,,,,,,14,self,win,self_win,0,"Play to WIN points

for YOURSELF",14,stimuli/tunga_02.bmp,1,stimuli/tunga_04.bmp,0,0,2,4,stimuli/tunga_02.bmp,stimuli/tunga_04.bmp,stimuli/tunga_02.bmp,left,2,2021-04-05_13h12.00.240,psyc-347-prosocial-learning,2020.2.4post1,Win32,60,1,0,14,14,14,1,13,0,0
right,0,0.415,stimuli/tunga_02.bmp,1,0,1,2100,1000,self avoid win,,,,,,15,self,win,self_win,0,"Play to WIN points

for YOURSELF",15,stimuli/tunga_02.bmp,0,stimuli/tunga_04.bmp,1,1,4,2,stimuli/tunga_04.bmp,stimuli/tunga_02.bmp,stimuli/tunga_04.bmp,left,2,2021-04-05_13h12.00.240,psyc-347-prosocial-learning,2020.2.4post1,Win32,60,0,0,15,15,15,1,13,0,0
right,0,0.367,stimuli/tunga_02.bmp,1,0,1,2100,1000,self avoid win,,,,,,16,self,win,self_win,0,"Play to WIN points

for YOURSELF",16,stimuli/tunga_02.bmp,0,stimuli/tunga_04.bmp,1,1,4,2,stimuli/tunga_04.bmp,stimuli/tunga_02.bmp,stimuli/tunga_04.bmp,left,2,2021-04-05_13h12.00.240,psyc-347-prosocial-learning,2020.2.4post1,Win32,60,0,0,16,16,16,1,13,0,0
right,1,0.364,stimuli/tunga_02.bmp,1,0,1,2200,1000,self win,,,,,,17,self,win,self_win,0,"Play to WIN points

for YOURSELF",17,stimuli/tunga_02.bmp,1,stimuli/tunga_04.bmp,0,1,4,2,stimuli/tunga_04.bmp,stimuli/tunga_02.bmp,stimuli/tunga_02.bmp,right,2,2021-04-05_13h12.00.240,psyc-347-prosocial-learning,2020.2.4post1,Win32,60,1,0,17,17,17,1,13,0,0
left,1,0.431,stimuli/tunga_02.bmp,1,0,1,2300,1000,self win,,,,,,18,self,win,self_win,0,"Play to WIN points

for YOURSELF",18,stimuli/tunga_02.bmp,1,stimuli/tunga_04.bmp,0,0,2,4,stimuli/tunga_02.bmp,stimuli/tunga_04.bmp,stimuli/tunga_02.bmp,left,2,2021-04-05_13h12.00.240,psyc-347-prosocial-learning,2020.2.4post1,Win32,60,1,0,18,18,18,1,13,0,0
left,0,0.419,stimuli/tunga_02.bmp,1,0,1,2300,1000,self avoid win,,,,,,19,self,win,self_win,0,"Play to WIN points

for YOURSELF",19,stimuli/tunga_02.bmp,0,stimuli/tunga_04.bmp,1,0,2,4,stimuli/tunga_02.bmp,stimuli/tunga_04.bmp,stimuli/tunga_04.bmp,right,2,2021-04-05_13h12.00.240,psyc-347-prosocial-learning,2020.2.4post1,Win32,60,0,0,19,19,19,1,13,0,0
left,0,0.38,stimuli/tunga_02.bmp,1,0,1,2300,1000,self avoid win,,,,,,20,self,win,self_win,0,"Play to WIN points

for YOURSELF",20,stimuli/tunga_02.bmp,0,stimuli/tunga_04.bmp,1,0,2,4,stimuli/tunga_02.bmp,stimuli/tunga_04.bmp,stimuli/tunga_04.bmp,right,2,2021-04-05_13h12.00.240,psyc-347-prosocial-learning,2020.2.4post1,Win32,60,0,0,20,20,20,1,13,0,0
left,1,0.448,stimuli/tunga_02.bmp,1,0,1,2400,1000,self win,,,,,,21,self,win,self_win,0,"Play to WIN points

for YOURSELF",21,stimuli/tunga_02.bmp,1,stimuli/tunga_04.bmp,0,0,2,4,stimuli/tunga_02.bmp,stimuli/tunga_04.bmp,stimuli/tunga_02.bmp,left,2,2021-04-05_13h12.00.240,psyc-347-prosocial-learning,2020.2.4post1,Win32,60,1,0,21,21,21,1,13,0,0
right,1,0.339,stimuli/tunga_02.bmp,1,0,1,2500,1000,self win,,,,,,22,self,win,self_win,0,"Play to WIN points

for YOURSELF",22,stimuli/tunga_02.bmp,1,stimuli/tunga_04.bmp,0,1,4,2,stimuli/tunga_04.bmp,stimuli/tunga_02.bmp,stimuli/tunga_02.bmp,right,2,2021-04-05_13h12.00.240,psyc-347-prosocial-learning,2020.2.4post1,Win32,60,1,0,22,22,22,1,13,0,0
right,1,0.415,stimuli/tunga_02.bmp,1,0,1,2600,1000,self win,,,,,,23,self,win,self_win,0,"Play to WIN points

for YOURSELF",23,stimuli/tunga_02.bmp,1,stimuli/tunga_04.bmp,0,1,4,2,stimuli/tunga_04.bmp,stimuli/tunga_02.bmp,stimuli/tunga_02.bmp,right,2,2021-04-05_13h12.00.240,psyc-347-prosocial-learning,2020.2.4post1,Win32,60,1,0,23,23,23,1,13,0,0
right,1,0.536,stimuli/tunga_01.bmp,1,0,1,2600,1100,social win,,,,,,24,social,win,social_win,1,"Play to WIN points

for the NEXT STUDENT",0,stimuli/tunga_01.bmp,1,stimuli/tunga_06.bmp,0,1,6,1,stimuli/tunga_06.bmp,stimuli/tunga_01.bmp,stimuli/tunga_01.bmp,right,2,2021-04-05_13h12.00.240,psyc-347-prosocial-learning,2020.2.4post1,Win32,60,1,0,24,24,24,1,13,0,0
left,1,0.506,stimuli/tunga_01.bmp,1,0,1,2600,1200,social win,,,,,,25,social,win,social_win,1,"Play to WIN points

for the NEXT STUDENT",1,stimuli/tunga_01.bmp,1,stimuli/tunga_06.bmp,0,0,1,6,stimuli/tunga_01.bmp,stimuli/tunga_06.bmp,stimuli/tunga_01.bmp,left,2,2021-04-05_13h12.00.240,psyc-347-prosocial-learning,2020.2.4post1,Win32,60,1,0,25,25,25,1,13,0,0
right,1,0.3,stimuli/tunga_01.bmp,1,0,1,2600,1300,social win,,,,,,26,social,win,social_win,1,"Play to WIN points

for the NEXT STUDENT",2,stimuli/tunga_01.bmp,1,stimuli/tunga_06.bmp,0,1,6,1,stimuli/tunga_06.bmp,stimuli/tunga_01.bmp,stimuli/tunga_01.bmp,right,2,2021-04-05_13h12.00.240,psyc-347-prosocial-learning,2020.2.4post1,Win32,60,1,0,26,26,26,1,13,0,0
left,1,0.348,stimuli/tunga_01.bmp,1,0,1,2600,1400,social win,,,,,,27,social,win,social_win,1,"Play to WIN points

for the NEXT STUDENT",3,stimuli/tunga_01.bmp,1,stimuli/tunga_06.bmp,0,0,1,6,stimuli/tunga_01.bmp,stimuli/tunga_06.bmp,stimuli/tunga_01.bmp,left,2,2021-04-05_13h12.00.240,psyc-347-prosocial-learning,2020.2.4post1,Win32,60,1,0,27,27,27,1,13,0,0
left,1,0.363,stimuli/tunga_06.bmp,0,1,0,2600,1500,social win,,,,,,28,social,win,social_win,1,"Play to WIN points

for the NEXT STUDENT",4,stimuli/tunga_01.bmp,0,stimuli/tunga_06.bmp,1,1,6,1,stimuli/tunga_06.bmp,stimuli/tunga_01.bmp,stimuli/tunga_06.bmp,left,2,2021-04-05_13h12.00.240,psyc-347-prosocial-learning,2020.2.4post1,Win32,60,1,0,28,28,28,1,13,0,0
right,0,0.348,stimuli/tunga_06.bmp,0,1,0,2600,1500,social avoid win,,,,,,29,social,win,social_win,1,"Play to WIN points

for the NEXT STUDENT",5,stimuli/tunga_01.bmp,1,stimuli/tunga_06.bmp,0,0,1,6,stimuli/tunga_01.bmp,stimuli/tunga_06.bmp,stimuli/tunga_01.bmp,left,2,2021-04-05_13h12.00.240,psyc-347-prosocial-learning,2020.2.4post1,Win32,60,0,0,29,29,29,1,13,0,0
left,1,0.315,stimuli/tunga_06.bmp,0,1,0,2600,1600,social win,,,,,,30,social,win,social_win,1,"Play to WIN points

for the NEXT STUDENT",6,stimuli/tunga_01.bmp,0,stimuli/tunga_06.bmp,1,1,6,1,stimuli/tunga_06.bmp,stimuli/tunga_01.bmp,stimuli/tunga_06.bmp,left,2,2021-04-05_13h12.00.240,psyc-347-prosocial-learning,2020.2.4post1,Win32,60,1,0,30,30,30,1,13,0,0
left,0,0.517,stimuli/tunga_06.bmp,0,1,0,2600,1600,social avoid win,,,,,,31,social,win,social_win,1,"Play to WIN points

for the NEXT STUDENT",7,stimuli/tunga_01.bmp,1,stimuli/tunga_06.bmp,0,1,6,1,stimuli/tunga_06.bmp,stimuli/tunga_01.bmp,stimuli/tunga_01.bmp,right,2,2021-04-05_13h12.00.240,psyc-347-prosocial-learning,2020.2.4post1,Win32,60,0,0,31,31,31,1,13,0,0
left,1,0.366,stimuli/tunga_06.bmp,0,1,0,2600,1700,social win,,,,,,32,social,win,social_win,1,"Play to WIN points

for the NEXT STUDENT",8,stimuli/tunga_01.bmp,0,stimuli/tunga_06.bmp,1,1,6,1,stimuli/tunga_06.bmp,stimuli/tunga_01.bmp,stimuli/tunga_06.bmp,left,2,2021-04-05_13h12.00.240,psyc-347-prosocial-learning,2020.2.4post1,Win32,60,1,0,32,32,32,1,13,0,0
left,0,0.24,stimuli/tunga_06.bmp,0,1,0,2600,1700,social avoid win,,,,,,33,social,win,social_win,1,"Play to WIN points

for the NEXT STUDENT",9,stimuli/tunga_01.bmp,1,stimuli/tunga_06.bmp,0,1,6,1,stimuli/tunga_06.bmp,stimuli/tunga_01.bmp,stimuli/tunga_01.bmp,right,2,2021-04-05_13h12.00.240,psyc-347-prosocial-learning,2020.2.4post1,Win32,60,0,0,33,33,33,1,13,0,0
left,0,0.249,stimuli/tunga_06.bmp,0,1,0,2600,1700,social avoid win,,,,,,34,social,win,social_win,1,"Play to WIN points

for the NEXT STUDENT",10,stimuli/tunga_01.bmp,1,stimuli/tunga_06.bmp,0,1,6,1,stimuli/tunga_06.bmp,stimuli/tunga_01.bmp,stimuli/tunga_01.bmp,right,2,2021-04-05_13h12.00.240,psyc-347-prosocial-learning,2020.2.4post1,Win32,60,0,0,34,34,34,1,13,0,0
left,0,0.282,stimuli/tunga_06.bmp,0,1,0,2600,1700,social avoid win,,,,,,35,social,win,social_win,1,"Play to WIN points

for the NEXT STUDENT",11,stimuli/tunga_01.bmp,1,stimuli/tunga_06.bmp,0,1,6,1,stimuli/tunga_06.bmp,stimuli/tunga_01.bmp,stimuli/tunga_01.bmp,right,2,2021-04-05_13h12.00.240,psyc-347-prosocial-learning,2020.2.4post1,Win32,60,0,0,35,35,35,1,13,0,0
left,1,0.2,stimuli/tunga_01.bmp,1,0,1,2600,1800,social win,,,,,,36,social,win,social_win,1,"Play to WIN points

for the NEXT STUDENT",12,stimuli/tunga_01.bmp,1,stimuli/tunga_06.bmp,0,0,1,6,stimuli/tunga_01.bmp,stimuli/tunga_06.bmp,stimuli/tunga_01.bmp,left,2,2021-04-05_13h12.00.240,psyc-347-prosocial-learning,2020.2.4post1,Win32,60,1,0,36,36,36,1,13,0,0
left,1,0.387,stimuli/tunga_01.bmp,1,0,1,2600,1900,social win,,,,,,37,social,win,social_win,1,"Play to WIN points

for the NEXT STUDENT",13,stimuli/tunga_01.bmp,1,stimuli/tunga_06.bmp,0,0,1,6,stimuli/tunga_01.bmp,stimuli/tunga_06.bmp,stimuli/tunga_01.bmp,left,2,2021-04-05_13h12.00.240,psyc-347-prosocial-learning,2020.2.4post1,Win32,60,1,0,37,37,37,1,13,0,0
left,0,0.637,stimuli/tunga_06.bmp,0,1,0,2600,1900,social avoid win,,,,,,38,social,win,social_win,1,"Play to WIN points

for the NEXT STUDENT",14,stimuli/tunga_01.bmp,1,stimuli/tunga_06.bmp,0,1,6,1,stimuli/tunga_06.bmp,stimuli/tunga_01.bmp,stimuli/tunga_01.bmp,right,2,2021-04-05_13h12.00.240,psyc-347-prosocial-learning,2020.2.4post1,Win32,60,0,0,38,38,38,1,13,0,0
left,0,0.336,stimuli/tunga_01.bmp,1,0,1,2600,1900,social avoid win,,,,,,39,social,win,social_win,1,"Play to WIN points

for the NEXT STUDENT",15,stimuli/tunga_01.bmp,0,stimuli/tunga_06.bmp,1,0,1,6,stimuli/tunga_01.bmp,stimuli/tunga_06.bmp,stimuli/tunga_06.bmp,right,2,2021-04-05_13h12.00.240,psyc-347-prosocial-learning,2020.2.4post1,Win32,60,0,0,39,39,39,1,13,0,0
right,1,1.222,stimuli/tunga_06.bmp,0,1,0,2600,2000,social win,,,,,,40,social,win,social_win,1,"Play to WIN points

for the NEXT STUDENT",16,stimuli/tunga_01.bmp,0,stimuli/tunga_06.bmp,1,0,1,6,stimuli/tunga_01.bmp,stimuli/tunga_06.bmp,stimuli/tunga_06.bmp,right,2,2021-04-05_13h12.00.240,psyc-347-prosocial-learning,2020.2.4post1,Win32,60,1,0,40,40,40,1,13,0,0
right,1,0.381,stimuli/tunga_01.bmp,1,0,1,2600,2100,social win,,,,,,41,social,win,social_win,1,"Play to WIN points

for the NEXT STUDENT",17,stimuli/tunga_01.bmp,1,stimuli/tunga_06.bmp,0,1,6,1,stimuli/tunga_06.bmp,stimuli/tunga_01.bmp,stimuli/tunga_01.bmp,right,2,2021-04-05_13h12.00.240,psyc-347-prosocial-learning,2020.2.4post1,Win32,60,1,0,41,41,41,1,13,0,0
left,0,0.347,stimuli/tunga_01.bmp,1,0,1,2600,2100,social avoid win,,,,,,42,social,win,social_win,1,"Play to WIN points

for the NEXT STUDENT",18,stimuli/tunga_01.bmp,0,stimuli/tunga_06.bmp,1,0,1,6,stimuli/tunga_01.bmp,stimuli/tunga_06.bmp,stimuli/tunga_06.bmp,right,2,2021-04-05_13h12.00.240,psyc-347-prosocial-learning,2020.2.4post1,Win32,60,0,0,42,42,42,1,13,0,0
left,1,0.352,stimuli/tunga_01.bmp,1,0,1,2600,2200,social win,,,,,,43,social,win,social_win,1,"Play to WIN points

for the NEXT STUDENT",19,stimuli/tunga_01.bmp,1,stimuli/tunga_06.bmp,0,0,1,6,stimuli/tunga_01.bmp,stimuli/tunga_06.bmp,stimuli/tunga_01.bmp,left,2,2021-04-05_13h12.00.240,psyc-347-prosocial-learning,2020.2.4post1,Win32,60,1,0,43,43,43,1,13,0,0
right,1,0.364,stimuli/tunga_01.bmp,1,0,1,2600,2300,social win,,,,,,44,social,win,social_win,1,"Play to WIN points

for the NEXT STUDENT",20,stimuli/tunga_01.bmp,1,stimuli/tunga_06.bmp,0,1,6,1,stimuli/tunga_06.bmp,stimuli/tunga_01.bmp,stimuli/tunga_01.bmp,right,2,2021-04-05_13h12.00.240,psyc-347-prosocial-learning,2020.2.4post1,Win32,60,1,0,44,44,44,1,13,0,0
left,1,0.431,stimuli/tunga_01.bmp,1,0,1,2600,2400,social win,,,,,,45,social,win,social_win,1,"Play to WIN points

for the NEXT STUDENT",21,stimuli/tunga_01.bmp,1,stimuli/tunga_06.bmp,0,0,1,6,stimuli/tunga_01.bmp,stimuli/tunga_06.bmp,stimuli/tunga_01.bmp,left,2,2021-04-05_13h12.00.240,psyc-347-prosocial-learning,2020.2.4post1,Win32,60,1,0,45,45,45,1,13,0,0
left,1,0.422,stimuli/tunga_01.bmp,1,0,1,2600,2500,social win,,,,,,46,social,win,social_win,1,"Play to WIN points

for the NEXT STUDENT",22,stimuli/tunga_01.bmp,1,stimuli/tunga_06.bmp,0,0,1,6,stimuli/tunga_01.bmp,stimuli/tunga_06.bmp,stimuli/tunga_01.bmp,left,2,2021-04-05_13h12.00.240,psyc-347-prosocial-learning,2020.2.4post1,Win32,60,1,0,46,46,46,1,13,0,0
left,1,0.38,stimuli/tunga_01.bmp,1,0,1,2600,2600,social win,,,,,,47,social,win,social_win,1,"Play to WIN points

for the NEXT STUDENT",23,stimuli/tunga_01.bmp,1,stimuli/tunga_06.bmp,0,0,1,6,stimuli/tunga_01.bmp,stimuli/tunga_06.bmp,stimuli/tunga_01.bmp,left,2,2021-04-05_13h12.00.240,psyc-347-prosocial-learning,2020.2.4post1,Win32,60,1,0,47,47,47,1,13,0,0
right,0,0.246,stimuli/tunga_14.bmp,1,0,0,2500,2600,self lose,,,,,,48,self,avoidloss,self_avoidloss,2,"Play to AVOID LOSING points

for YOURSELF",0,stimuli/tunga_14.bmp,-1,stimuli/tunga_15.bmp,0,1,15,14,stimuli/tunga_15.bmp,stimuli/tunga_14.bmp,stimuli/tunga_15.bmp,left,2,2021-04-05_13h12.00.240,psyc-347-prosocial-learning,2020.2.4post1,Win32,60,-1,0,48,48,48,1,13,0,0
right,1,0.521,stimuli/tunga_15.bmp,0,1,1,2500,2600,self avoid loss,,,,,,49,self,avoidloss,self_avoidloss,2,"Play to AVOID LOSING points

for YOURSELF",1,stimuli/tunga_14.bmp,-1,stimuli/tunga_15.bmp,0,0,14,15,stimuli/tunga_14.bmp,stimuli/tunga_15.bmp,stimuli/tunga_15.bmp,right,2,2021-04-05_13h12.00.240,psyc-347-prosocial-learning,2020.2.4post1,Win32,60,0,0,49,49,49,1,13,0,0
right,1,0.365,stimuli/tunga_15.bmp,0,1,1,2500,2600,self avoid loss,,,,,,50,self,avoidloss,self_avoidloss,2,"Play to AVOID LOSING points

for YOURSELF",2,stimuli/tunga_14.bmp,-1,stimuli/tunga_15.bmp,0,0,14,15,stimuli/tunga_14.bmp,stimuli/tunga_15.bmp,stimuli/tunga_15.bmp,right,2,2021-04-05_13h12.00.240,psyc-347-prosocial-learning,2020.2.4post1,Win32,60,0,0,50,50,50,1,13,0,0
right,1,0.451,stimuli/tunga_15.bmp,0,1,1,2500,2600,self avoid loss,,,,,,51,self,avoidloss,self_avoidloss,2,"Play to AVOID LOSING points

for YOURSELF",3,stimuli/tunga_14.bmp,-1,stimuli/tunga_15.bmp,0,0,14,15,stimuli/tunga_14.bmp,stimuli/tunga_15.bmp,stimuli/tunga_15.bmp,right,2,2021-04-05_13h12.00.240,psyc-347-prosocial-learning,2020.2.4post1,Win32,60,0,0,51,51,51,1,13,0,0
right,0,0.429,stimuli/tunga_15.bmp,0,1,1,2400,2600,self lose,,,,,,52,self,avoidloss,self_avoidloss,2,"Play to AVOID LOSING points

for YOURSELF",4,stimuli/tunga_14.bmp,0,stimuli/tunga_15.bmp,-1,0,14,15,stimuli/tunga_14.bmp,stimuli/tunga_15.bmp,stimuli/tunga_14.bmp,left,2,2021-04-05_13h12.00.240,psyc-347-prosocial-learning,2020.2.4post1,Win32,60,-1,0,52,52,52,1,13,0,0
right,1,0.431,stimuli/tunga_15.bmp,0,1,1,2400,2600,self avoid loss,,,,,,53,self,avoidloss,self_avoidloss,2,"Play to AVOID LOSING points

for YOURSELF",5,stimuli/tunga_14.bmp,-1,stimuli/tunga_15.bmp,0,0,14,15,stimuli/tunga_14.bmp,stimuli/tunga_15.bmp,stimuli/tunga_15.bmp,right,2,2021-04-05_13h12.00.240,psyc-347-prosocial-learning,2020.2.4post1,Win32,60,0,0,53,53,53,1,13,0,0
right,1,0.398,stimuli/tunga_15.bmp,0,1,1,2400,2600,self avoid loss,,,,,,54,self,avoidloss,self_avoidloss,2,"Play to AVOID LOSING points

for YOURSELF",6,stimuli/tunga_14.bmp,-1,stimuli/tunga_15.bmp,0,0,14,15,stimuli/tunga_14.bmp,stimuli/tunga_15.bmp,stimuli/tunga_15.bmp,right,2,2021-04-05_13h12.00.240,psyc-347-prosocial-learning,2020.2.4post1,Win32,60,0,0,54,54,54,1,13,0,0
left,1,0.385,stimuli/tunga_15.bmp,0,1,1,2400,2600,self avoid loss,,,,,,55,self,avoidloss,self_avoidloss,2,"Play to AVOID LOSING points

for YOURSELF",7,stimuli/tunga_14.bmp,-1,stimuli/tunga_15.bmp,0,1,15,14,stimuli/tunga_15.bmp,stimuli/tunga_14.bmp,stimuli/tunga_15.bmp,left,2,2021-04-05_13h12.00.240,psyc-347-prosocial-learning,2020.2.4post1,Win32,60,0,0,55,55,55,1,13,0,0
right,0,0.38,stimuli/tunga_14.bmp,1,0,0,2300,2600,self lose,,,,,,56,self,avoidloss,self_avoidloss,2,"Play to AVOID LOSING points

for YOURSELF",8,stimuli/tunga_14.bmp,-1,stimuli/tunga_15.bmp,0,1,15,14,stimuli/tunga_15.bmp,stimuli/tunga_14.bmp,stimuli/tunga_15.bmp,left,2,2021-04-05_13h12.00.240,psyc-347-prosocial-learning,2020.2.4post1,Win32,60,-1,0,56,56,56,1,13,0,0
right,1,0.746,stimuli/tunga_14.bmp,1,0,0,2300,2600,self avoid loss,,,,,,57,self,avoidloss,self_avoidloss,2,"Play to AVOID LOSING points

for YOURSELF",9,stimuli/tunga_14.bmp,0,stimuli/tunga_15.bmp,-1,1,15,14,stimuli/tunga_15.bmp,stimuli/tunga_14.bmp,stimuli/tunga_14.bmp,right,2,2021-04-05_13h12.00.240,psyc-347-prosocial-learning,2020.2.4post1,Win32,60,0,0,57,57,57,1,13,0,0
right,1,0.649,stimuli/tunga_15.bmp,0,1,1,2300,2600,self avoid loss,,,,,,58,self,avoidloss,self_avoidloss,2,"Play to AVOID LOSING points

for YOURSELF",10,stimuli/tunga_14.bmp,-1,stimuli/tunga_15.bmp,0,0,14,15,stimuli/tunga_14.bmp,stimuli/tunga_15.bmp,stimuli/tunga_15.bmp,right,2,2021-04-05_13h12.00.240,psyc-347-prosocial-learning,2020.2.4post1,Win32,60,0,0,58,58,58,1,13,0,0
left,1,0.39,stimuli/tunga_15.bmp,0,1,1,2300,2600,self avoid loss,,,,,,59,self,avoidloss,self_avoidloss,2,"Play to AVOID LOSING points

for YOURSELF",11,stimuli/tunga_14.bmp,-1,stimuli/tunga_15.bmp,0,1,15,14,stimuli/tunga_15.bmp,stimuli/tunga_14.bmp,stimuli/tunga_15.bmp,left,2,2021-04-05_13h12.00.240,psyc-347-prosocial-learning,2020.2.4post1,Win32,60,0,0,59,59,59,1,13,0,0
right,1,0.598,stimuli/tunga_15.bmp,0,1,1,2300,2600,self avoid loss,,,,,,60,self,avoidloss,self_avoidloss,2,"Play to AVOID LOSING points

for YOURSELF",12,stimuli/tunga_14.bmp,-1,stimuli/tunga_15.bmp,0,0,14,15,stimuli/tunga_14.bmp,stimuli/tunga_15.bmp,stimuli/tunga_15.bmp,right,2,2021-04-05_13h12.00.240,psyc-347-prosocial-learning,2020.2.4post1,Win32,60,0,0,60,60,60,1,13,0,0
left,0,0.467,stimuli/tunga_15.bmp,0,1,1,2200,2600,self lose,,,,,,61,self,avoidloss,self_avoidloss,2,"Play to AVOID LOSING points

for YOURSELF",13,stimuli/tunga_14.bmp,0,stimuli/tunga_15.bmp,-1,1,15,14,stimuli/tunga_15.bmp,stimuli/tunga_14.bmp,stimuli/tunga_14.bmp,right,2,2021-04-05_13h12.00.240,psyc-347-prosocial-learning,2020.2.4post1,Win32,60,-1,0,61,61,61,1,13,0,0
left,0,0.403,stimuli/tunga_15.bmp,0,1,1,2100,2600,self lose,,,,,,62,self,avoidloss,self_avoidloss,2,"Play to AVOID LOSING points

for YOURSELF",14,stimuli/tunga_14.bmp,0,stimuli/tunga_15.bmp,-1,1,15,14,stimuli/tunga_15.bmp,stimuli/tunga_14.bmp,stimuli/tunga_14.bmp,right,2,2021-04-05_13h12.00.240,psyc-347-prosocial-learning,2020.2.4post1,Win32,60,-1,0,62,62,62,1,13,0,0
left,0,0.382,stimuli/tunga_15.bmp,0,1,1,2000,2600,self lose,,,,,,63,self,avoidloss,self_avoidloss,2,"Play to AVOID LOSING points

for YOURSELF",15,stimuli/tunga_14.bmp,0,stimuli/tunga_15.bmp,-1,1,15,14,stimuli/tunga_15.bmp,stimuli/tunga_14.bmp,stimuli/tunga_14.bmp,right,2,2021-04-05_13h12.00.240,psyc-347-prosocial-learning,2020.2.4post1,Win32,60,-1,0,63,63,63,1,13,0,0
left,1,0.433,stimuli/tunga_15.bmp,0,1,1,2000,2600,self avoid loss,,,,,,64,self,avoidloss,self_avoidloss,2,"Play to AVOID LOSING points

for YOURSELF",16,stimuli/tunga_14.bmp,-1,stimuli/tunga_15.bmp,0,1,15,14,stimuli/tunga_15.bmp,stimuli/tunga_14.bmp,stimuli/tunga_15.bmp,left,2,2021-04-05_13h12.00.240,psyc-347-prosocial-learning,2020.2.4post1,Win32,60,0,0,64,64,64,1,13,0,0
left,1,0.364,stimuli/tunga_15.bmp,0,1,1,2000,2600,self avoid loss,,,,,,65,self,avoidloss,self_avoidloss,2,"Play to AVOID LOSING points

for YOURSELF",17,stimuli/tunga_14.bmp,-1,stimuli/tunga_15.bmp,0,1,15,14,stimuli/tunga_15.bmp,stimuli/tunga_14.bmp,stimuli/tunga_15.bmp,left,2,2021-04-05_13h12.00.240,psyc-347-prosocial-learning,2020.2.4post1,Win32,60,0,0,65,65,65,1,13,0,0
right,1,0.404,stimuli/tunga_15.bmp,0,1,1,2000,2600,self avoid loss,,,,,,66,self,avoidloss,self_avoidloss,2,"Play to AVOID LOSING points

for YOURSELF",18,stimuli/tunga_14.bmp,-1,stimuli/tunga_15.bmp,0,0,14,15,stimuli/tunga_14.bmp,stimuli/tunga_15.bmp,stimuli/tunga_15.bmp,right,2,2021-04-05_13h12.00.240,psyc-347-prosocial-learning,2020.2.4post1,Win32,60,0,0,66,66,66,1,13,0,0
left,1,0.33,stimuli/tunga_15.bmp,0,1,1,2000,2600,self avoid loss,,,,,,67,self,avoidloss,self_avoidloss,2,"Play to AVOID LOSING points

for YOURSELF",19,stimuli/tunga_14.bmp,-1,stimuli/tunga_15.bmp,0,1,15,14,stimuli/tunga_15.bmp,stimuli/tunga_14.bmp,stimuli/tunga_15.bmp,left,2,2021-04-05_13h12.00.240,psyc-347-prosocial-learning,2020.2.4post1,Win32,60,0,0,67,67,67,1,13,0,0
right,1,0.336,stimuli/tunga_15.bmp,0,1,1,2000,2600,self avoid loss,,,,,,68,self,avoidloss,self_avoidloss,2,"Play to AVOID LOSING points

for YOURSELF",20,stimuli/tunga_14.bmp,-1,stimuli/tunga_15.bmp,0,0,14,15,stimuli/tunga_14.bmp,stimuli/tunga_15.bmp,stimuli/tunga_15.bmp,right,2,2021-04-05_13h12.00.240,psyc-347-prosocial-learning,2020.2.4post1,Win32,60,0,0,68,68,68,1,13,0,0
left,1,0.447,stimuli/tunga_15.bmp,0,1,1,2000,2600,self avoid loss,,,,,,69,self,avoidloss,self_avoidloss,2,"Play to AVOID LOSING points

for YOURSELF",21,stimuli/tunga_14.bmp,-1,stimuli/tunga_15.bmp,0,1,15,14,stimuli/tunga_15.bmp,stimuli/tunga_14.bmp,stimuli/tunga_15.bmp,left,2,2021-04-05_13h12.00.240,psyc-347-prosocial-learning,2020.2.4post1,Win32,60,0,0,69,69,69,1,13,0,0
right,0,0.502,stimuli/tunga_15.bmp,0,1,1,1900,2600,self lose,,,,,,70,self,avoidloss,self_avoidloss,2,"Play to AVOID LOSING points

for YOURSELF",22,stimuli/tunga_14.bmp,0,stimuli/tunga_15.bmp,-1,0,14,15,stimuli/tunga_14.bmp,stimuli/tunga_15.bmp,stimuli/tunga_14.bmp,left,2,2021-04-05_13h12.00.240,psyc-347-prosocial-learning,2020.2.4post1,Win32,60,-1,0,70,70,70,1,13,0,0
right,1,0.333,stimuli/tunga_15.bmp,0,1,1,1900,2600,self avoid loss,,,,,,71,self,avoidloss,self_avoidloss,2,"Play to AVOID LOSING points

for YOURSELF",23,stimuli/tunga_14.bmp,-1,stimuli/tunga_15.bmp,0,0,14,15,stimuli/tunga_14.bmp,stimuli/tunga_15.bmp,stimuli/tunga_15.bmp,right,2,2021-04-05_13h12.00.240,psyc-347-prosocial-learning,2020.2.4post1,Win32,60,0,0,71,71,71,1,13,0,0
left,1,0.613,stimuli/tunga_07.bmp,0,1,1,1900,2600,social avoid loss,,,,,,72,social,avoidloss,social_avoidloss,3,"Play to AVOID LOSING points

for the NEXT STUDENT",0,stimuli/tunga_11.bmp,-1,stimuli/tunga_07.bmp,0,1,7,11,stimuli/tunga_07.bmp,stimuli/tunga_11.bmp,stimuli/tunga_07.bmp,left,2,2021-04-05_13h12.00.240,psyc-347-prosocial-learning,2020.2.4post1,Win32,60,0,0,72,72,72,1,13,0,0
left,1,0.653,stimuli/tunga_07.bmp,0,1,1,1900,2600,social avoid loss,,,,,,73,social,avoidloss,social_avoidloss,3,"Play to AVOID LOSING points

for the NEXT STUDENT",1,stimuli/tunga_11.bmp,-1,stimuli/tunga_07.bmp,0,1,7,11,stimuli/tunga_07.bmp,stimuli/tunga_11.bmp,stimuli/tunga_07.bmp,left,2,2021-04-05_13h12.00.240,psyc-347-prosocial-learning,2020.2.4post1,Win32,60,0,0,73,73,73,1,13,0,0
left,0,0.52,stimuli/tunga_07.bmp,0,1,1,1900,2500,social lose,,,,,,74,social,avoidloss,social_avoidloss,3,"Play to AVOID LOSING points

for the NEXT STUDENT",2,stimuli/tunga_11.bmp,0,stimuli/tunga_07.bmp,-1,1,7,11,stimuli/tunga_07.bmp,stimuli/tunga_11.bmp,stimuli/tunga_11.bmp,right,2,2021-04-05_13h12.00.240,psyc-347-prosocial-learning,2020.2.4post1,Win32,60,-1,0,74,74,74,1,13,0,0
right,1,0.5,stimuli/tunga_07.bmp,0,1,1,1900,2500,social avoid loss,,,,,,75,social,avoidloss,social_avoidloss,3,"Play to AVOID LOSING points

for the NEXT STUDENT",3,stimuli/tunga_11.bmp,-1,stimuli/tunga_07.bmp,0,0,11,7,stimuli/tunga_11.bmp,stimuli/tunga_07.bmp,stimuli/tunga_07.bmp,right,2,2021-04-05_13h12.00.240,psyc-347-prosocial-learning,2020.2.4post1,Win32,60,0,0,75,75,75,1,13,0,0
left,0,1.046,stimuli/tunga_11.bmp,1,0,0,1900,2400,social lose,,,,,,76,social,avoidloss,social_avoidloss,3,"Play to AVOID LOSING points

for the NEXT STUDENT",4,stimuli/tunga_11.bmp,-1,stimuli/tunga_07.bmp,0,0,11,7,stimuli/tunga_11.bmp,stimuli/tunga_07.bmp,stimuli/tunga_07.bmp,right,2,2021-04-05_13h12.00.240,psyc-347-prosocial-learning,2020.2.4post1,Win32,60,-1,0,76,76,76,1,13,0,0
right,1,0.389,stimuli/tunga_07.bmp,0,1,1,1900,2400,social avoid loss,,,,,,77,social,avoidloss,social_avoidloss,3,"Play to AVOID LOSING points

for the NEXT STUDENT",5,stimuli/tunga_11.bmp,-1,stimuli/tunga_07.bmp,0,0,11,7,stimuli/tunga_11.bmp,stimuli/tunga_07.bmp,stimuli/tunga_07.bmp,right,2,2021-04-05_13h12.00.240,psyc-347-prosocial-learning,2020.2.4post1,Win32,60,0,0,77,77,77,1,13,0,0
left,0,0.466,stimuli/tunga_11.bmp,1,0,0,1900,2300,social lose,,,,,,78,social,avoidloss,social_avoidloss,3,"Play to AVOID LOSING points

for the NEXT STUDENT",6,stimuli/tunga_11.bmp,-1,stimuli/tunga_07.bmp,0,0,11,7,stimuli/tunga_11.bmp,stimuli/tunga_07.bmp,stimuli/tunga_07.bmp,right,2,2021-04-05_13h12.00.240,psyc-347-prosocial-learning,2020.2.4post1,Win32,60,-1,0,78,78,78,1,13,0,0
right,0,0.447,stimuli/tunga_11.bmp,1,0,0,1900,2200,social lose,,,,,,79,social,avoidloss,social_avoidloss,3,"Play to AVOID LOSING points

for the NEXT STUDENT",7,stimuli/tunga_11.bmp,-1,stimuli/tunga_07.bmp,0,1,7,11,stimuli/tunga_07.bmp,stimuli/tunga_11.bmp,stimuli/tunga_07.bmp,left,2,2021-04-05_13h12.00.240,psyc-347-prosocial-learning,2020.2.4post1,Win32,60,-1,0,79,79,79,1,13,0,0
left,0,0.431,stimuli/tunga_11.bmp,1,0,0,1900,2100,social lose,,,,,,80,social,avoidloss,social_avoidloss,3,"Play to AVOID LOSING points

for the NEXT STUDENT",8,stimuli/tunga_11.bmp,-1,stimuli/tunga_07.bmp,0,0,11,7,stimuli/tunga_11.bmp,stimuli/tunga_07.bmp,stimuli/tunga_07.bmp,right,2,2021-04-05_13h12.00.240,psyc-347-prosocial-learning,2020.2.4post1,Win32,60,-1,0,80,80,80,1,13,0,0
right,1,0.322,stimuli/tunga_11.bmp,1,0,0,1900,2100,social avoid loss,,,,,,81,social,avoidloss,social_avoidloss,3,"Play to AVOID LOSING points

for the NEXT STUDENT",9,stimuli/tunga_11.bmp,0,stimuli/tunga_07.bmp,-1,1,7,11,stimuli/tunga_07.bmp,stimuli/tunga_11.bmp,stimuli/tunga_11.bmp,right,2,2021-04-05_13h12.00.240,psyc-347-prosocial-learning,2020.2.4post1,Win32,60,0,0,81,81,81,1,13,0,0
left,1,0.621,stimuli/tunga_07.bmp,0,1,1,1900,2100,social avoid loss,,,,,,82,social,avoidloss,social_avoidloss,3,"Play to AVOID LOSING points

for the NEXT STUDENT",10,stimuli/tunga_11.bmp,-1,stimuli/tunga_07.bmp,0,1,7,11,stimuli/tunga_07.bmp,stimuli/tunga_11.bmp,stimuli/tunga_07.bmp,left,2,2021-04-05_13h12.00.240,psyc-347-prosocial-learning,2020.2.4post1,Win32,60,0,0,82,82,82,1,13,0,0
left,1,0.462,stimuli/tunga_07.bmp,0,1,1,1900,2100,social avoid loss,,,,,,83,social,avoidloss,social_avoidloss,3,"Play to AVOID LOSING points

for the NEXT STUDENT",11,stimuli/tunga_11.bmp,-1,stimuli/tunga_07.bmp,0,1,7,11,stimuli/tunga_07.bmp,stimuli/tunga_11.bmp,stimuli/tunga_07.bmp,left,2,2021-04-05_13h12.00.240,psyc-347-prosocial-learning,2020.2.4post1,Win32,60,0,0,83,83,83,1,13,0,0
left,0,0.652,stimuli/tunga_07.bmp,0,1,1,1900,2000,social lose,,,,,,84,social,avoidloss,social_avoidloss,3,"Play to AVOID LOSING points

for the NEXT STUDENT",12,stimuli/tunga_11.bmp,0,stimuli/tunga_07.bmp,-1,1,7,11,stimuli/tunga_07.bmp,stimuli/tunga_11.bmp,stimuli/tunga_11.bmp,right,2,2021-04-05_13h12.00.240,psyc-347-prosocial-learning,2020.2.4post1,Win32,60,-1,0,84,84,84,1,13,0,0
right,0,0.267,stimuli/tunga_11.bmp,1,0,0,1900,1900,social lose,,,,,,85,social,avoidloss,social_avoidloss,3,"Play to AVOID LOSING points

for the NEXT STUDENT",13,stimuli/tunga_11.bmp,-1,stimuli/tunga_07.bmp,0,1,7,11,stimuli/tunga_07.bmp,stimuli/tunga_11.bmp,stimuli/tunga_07.bmp,left,2,2021-04-05_13h12.00.240,psyc-347-prosocial-learning,2020.2.4post1,Win32,60,-1,0,85,85,85,1,13,0,0
left,1,0.253,stimuli/tunga_07.bmp,0,1,1,1900,1900,social avoid loss,,,,,,86,social,avoidloss,social_avoidloss,3,"Play to AVOID LOSING points

for the NEXT STUDENT",14,stimuli/tunga_11.bmp,-1,stimuli/tunga_07.bmp,0,1,7,11,stimuli/tunga_07.bmp,stimuli/tunga_11.bmp,stimuli/tunga_07.bmp,left,2,2021-04-05_13h12.00.240,psyc-347-prosocial-learning,2020.2.4post1,Win32,60,0,0,86,86,86,1,13,0,0
left,1,0.33,stimuli/tunga_11.bmp,1,0,0,1900,1900,social avoid loss,,,,,,87,social,avoidloss,social_avoidloss,3,"Play to AVOID LOSING points

for the NEXT STUDENT",15,stimuli/tunga_11.bmp,0,stimuli/tunga_07.bmp,-1,0,11,7,stimuli/tunga_11.bmp,stimuli/tunga_07.bmp,stimuli/tunga_11.bmp,left,2,2021-04-05_13h12.00.240,psyc-347-prosocial-learning,2020.2.4post1,Win32,60,0,0,87,87,87,1,13,0,0
right,0,0.778,stimuli/tunga_07.bmp,0,1,1,1900,1800,social lose,,,,,,88,social,avoidloss,social_avoidloss,3,"Play to AVOID LOSING points

for the NEXT STUDENT",16,stimuli/tunga_11.bmp,0,stimuli/tunga_07.bmp,-1,0,11,7,stimuli/tunga_11.bmp,stimuli/tunga_07.bmp,stimuli/tunga_11.bmp,left,2,2021-04-05_13h12.00.240,psyc-347-prosocial-learning,2020.2.4post1,Win32,60,-1,0,88,88,88,1,13,0,0
left,0,0.648,stimuli/tunga_11.bmp,1,0,0,1900,1700,social lose,,,,,,89,social,avoidloss,social_avoidloss,3,"Play to AVOID LOSING points

for the NEXT STUDENT",17,stimuli/tunga_11.bmp,-1,stimuli/tunga_07.bmp,0,0,11,7,stimuli/tunga_11.bmp,stimuli/tunga_07.bmp,stimuli/tunga_07.bmp,right,2,2021-04-05_13h12.00.240,psyc-347-prosocial-learning,2020.2.4post1,Win32,60,-1,0,89,89,89,1,13,0,0
right,1,0.374,stimuli/tunga_07.bmp,0,1,1,1900,1700,social avoid loss,,,,,,90,social,avoidloss,social_avoidloss,3,"Play to AVOID LOSING points

for the NEXT STUDENT",18,stimuli/tunga_11.bmp,-1,stimuli/tunga_07.bmp,0,0,11,7,stimuli/tunga_11.bmp,stimuli/tunga_07.bmp,stimuli/tunga_07.bmp,right,2,2021-04-05_13h12.00.240,psyc-347-prosocial-learning,2020.2.4post1,Win32,60,0,0,90,90,90,1,13,0,0
right,1,0.403,stimuli/tunga_07.bmp,0,1,1,1900,1700,social avoid loss,,,,,,91,social,avoidloss,social_avoidloss,3,"Play to AVOID LOSING points

for the NEXT STUDENT",19,stimuli/tunga_11.bmp,-1,stimuli/tunga_07.bmp,0,0,11,7,stimuli/tunga_11.bmp,stimuli/tunga_07.bmp,stimuli/tunga_07.bmp,right,2,2021-04-05_13h12.00.240,psyc-347-prosocial-learning,2020.2.4post1,Win32,60,0,0,91,91,91,1,13,0,0
right,0,0.407,stimuli/tunga_07.bmp,0,1,1,1900,1600,social lose,,,,,,92,social,avoidloss,social_avoidloss,3,"Play to AVOID LOSING points

for the NEXT STUDENT",20,stimuli/tunga_11.bmp,0,stimuli/tunga_07.bmp,-1,0,11,7,stimuli/tunga_11.bmp,stimuli/tunga_07.bmp,stimuli/tunga_11.bmp,left,2,2021-04-05_13h12.00.240,psyc-347-prosocial-learning,2020.2.4post1,Win32,60,-1,0,92,92,92,1,13,0,0
left,1,0.581,stimuli/tunga_07.bmp,0,1,1,1900,1600,social avoid loss,,,,,,93,social,avoidloss,social_avoidloss,3,"Play to AVOID LOSING points

for the NEXT STUDENT",21,stimuli/tunga_11.bmp,-1,stimuli/tunga_07.bmp,0,1,7,11,stimuli/tunga_07.bmp,stimuli/tunga_11.bmp,stimuli/tunga_07.bmp,left,2,2021-04-05_13h12.00.240,psyc-347-prosocial-learning,2020.2.4post1,Win32,60,0,0,93,93,93,1,13,0,0
right,1,0.413,stimuli/tunga_07.bmp,0,1,1,1900,1600,social avoid loss,,,,,,94,social,avoidloss,social_avoidloss,3,"Play to AVOID LOSING points

for the NEXT STUDENT",22,stimuli/tunga_11.bmp,-1,stimuli/tunga_07.bmp,0,0,11,7,stimuli/tunga_11.bmp,stimuli/tunga_07.bmp,stimuli/tunga_07.bmp,right,2,2021-04-05_13h12.00.240,psyc-347-prosocial-learning,2020.2.4post1,Win32,60,0,0,94,94,94,1,13,0,0
left,1,0.498,stimuli/tunga_07.bmp,0,1,1,1900,1600,social avoid loss,,,,,,95,social,avoidloss,social_avoidloss,3,"Play to AVOID LOSING points

for the NEXT STUDENT",23,stimuli/tunga_11.bmp,-1,stimuli/tunga_07.bmp,0,1,7,11,stimuli/tunga_07.bmp,stimuli/tunga_11.bmp,stimuli/tunga_07.bmp,left,2,2021-04-05_13h12.00.240,psyc-347-prosocial-learning,2020.2.4post1,Win32,60,0,0,95,95,95,1,13,0,0
