key_resp.keys,key_resp.corr,key_resp.rt,chosen_stim_name,chosen_stim_0,chosen_stim_1,true_accuracy,cumulativePts_self,cumulativePts_social,outcomeDescr,practice_round.thisRepN,practice_round.thisTrialN,practice_round.thisN,practice_round.thisIndex,practice_round.ran,index,condition,goal,block,block_num,block_instr_text,trial_num,stim_0,stim_0_value,stim_1,stim_1_value,position_changed,stim_left,stim_right,stim_left_name,stim_right_name,optimal_stim,optimal_choice,participant,date,expName,psychopyVersion,OS,frameRate,outcome,trials.thisRepN,trials.thisTrialN,trials.thisN,trials.thisIndex,trials.ran,subject,order_num,session
right,1,0.574095,stimuli/tunga_22.bmp,1,0,1,1000,1000,practice,0,0,0,0,1,100,practice,win,practice_win,1,Play to WIN points,0,stimuli/tunga_22.bmp,1,stimuli/tunga_21.bmp,0,1,21,22,stimuli/tunga_21.bmp,stimuli/tunga_22.bmp,stimuli/tunga_22.bmp,right,06,2021-04-06_12h08.15.625,psyc-347-prosocial-learning,2020.2.4post1,MacIntel,60,,,,,,,,,
left,0,0.682955,stimuli/tunga_21.bmp,0,1,0,1000,1000,practice,0,1,1,1,1,101,practice,win,practice_win,1,Play to WIN points,1,stimuli/tunga_22.bmp,1,stimuli/tunga_21.bmp,0,1,21,22,stimuli/tunga_21.bmp,stimuli/tunga_22.bmp,stimuli/tunga_22.bmp,right,06,2021-04-06_12h08.15.625,psyc-347-prosocial-learning,2020.2.4post1,MacIntel,60,,,,,,,,,
right,1,0.166455,stimuli/tunga_21.bmp,0,1,0,1000,1000,practice,0,2,2,2,1,102,practice,win,practice_win,1,Play to WIN points,2,stimuli/tunga_22.bmp,0,stimuli/tunga_21.bmp,1,0,22,21,stimuli/tunga_22.bmp,stimuli/tunga_21.bmp,stimuli/tunga_21.bmp,right,06,2021-04-06_12h08.15.625,psyc-347-prosocial-learning,2020.2.4post1,MacIntel,60,,,,,,,,,
right,0,0.79908,stimuli/tunga_21.bmp,0,1,0,1000,1000,practice,0,3,3,3,1,103,practice,win,practice_win,1,Play to WIN points,3,stimuli/tunga_22.bmp,1,stimuli/tunga_21.bmp,0,0,22,21,stimuli/tunga_22.bmp,stimuli/tunga_21.bmp,stimuli/tunga_22.bmp,left,06,2021-04-06_12h08.15.625,psyc-347-prosocial-learning,2020.2.4post1,MacIntel,60,,,,,,,,,
left,1,0.716235,stimuli/tunga_21.bmp,0,1,0,1000,1000,practice,0,4,4,4,1,104,practice,win,practice_win,1,Play to WIN points,4,stimuli/tunga_22.bmp,0,stimuli/tunga_21.bmp,1,1,21,22,stimuli/tunga_21.bmp,stimuli/tunga_22.bmp,stimuli/tunga_21.bmp,left,06,2021-04-06_12h08.15.625,psyc-347-prosocial-learning,2020.2.4post1,MacIntel,60,,,,,,,,,
right,0,0.69839,stimuli/tunga_21.bmp,0,1,0,1000,1000,practice,0,5,5,5,1,105,practice,win,practice_win,1,Play to WIN points,5,stimuli/tunga_22.bmp,1,stimuli/tunga_21.bmp,0,0,22,21,stimuli/tunga_22.bmp,stimuli/tunga_21.bmp,stimuli/tunga_22.bmp,left,06,2021-04-06_12h08.15.625,psyc-347-prosocial-learning,2020.2.4post1,MacIntel,60,,,,,,,,,
left,0,0.534585,stimuli/tunga_21.bmp,0,1,0,1000,1000,practice,0,6,6,6,1,106,practice,win,practice_win,1,Play to WIN points,6,stimuli/tunga_22.bmp,1,stimuli/tunga_21.bmp,0,1,21,22,stimuli/tunga_21.bmp,stimuli/tunga_22.bmp,stimuli/tunga_22.bmp,right,06,2021-04-06_12h08.15.625,psyc-347-prosocial-learning,2020.2.4post1,MacIntel,60,,,,,,,,,
left,1,0.950215,stimuli/tunga_22.bmp,1,0,1,1000,1000,practice,0,7,7,7,1,107,practice,win,practice_win,1,Play to WIN points,7,stimuli/tunga_22.bmp,1,stimuli/tunga_21.bmp,0,0,22,21,stimuli/tunga_22.bmp,stimuli/tunga_21.bmp,stimuli/tunga_22.bmp,left,06,2021-04-06_12h08.15.625,psyc-347-prosocial-learning,2020.2.4post1,MacIntel,60,,,,,,,,,
left,1,1.33703,stimuli/tunga_23.bmp,1,0,0,1000,1000,practice,0,8,8,8,1,108,practice,avoidloss,practice_avoidloss,3,Play to AVOID LOSING points,0,stimuli/tunga_23.bmp,0,stimuli/tunga_24.bmp,-1,0,23,24,stimuli/tunga_23.bmp,stimuli/tunga_24.bmp,stimuli/tunga_23.bmp,left,06,2021-04-06_12h08.15.625,psyc-347-prosocial-learning,2020.2.4post1,MacIntel,60,,,,,,,,,
right,1,0.94813,stimuli/tunga_24.bmp,0,1,1,1000,1000,practice,0,9,9,9,1,109,practice,avoidloss,practice_avoidloss,3,Play to AVOID LOSING points,1,stimuli/tunga_23.bmp,-1,stimuli/tunga_24.bmp,0,0,23,24,stimuli/tunga_23.bmp,stimuli/tunga_24.bmp,stimuli/tunga_24.bmp,right,06,2021-04-06_12h08.15.625,psyc-347-prosocial-learning,2020.2.4post1,MacIntel,60,,,,,,,,,
left,1,0.95612,stimuli/tunga_24.bmp,0,1,1,1000,1000,practice,0,10,10,10,1,110,practice,avoidloss,practice_avoidloss,3,Play to AVOID LOSING points,2,stimuli/tunga_23.bmp,-1,stimuli/tunga_24.bmp,0,1,24,23,stimuli/tunga_24.bmp,stimuli/tunga_23.bmp,stimuli/tunga_24.bmp,left,06,2021-04-06_12h08.15.625,psyc-347-prosocial-learning,2020.2.4post1,MacIntel,60,,,,,,,,,
left,0,1.21745,stimuli/tunga_24.bmp,0,1,1,1000,1000,practice,0,11,11,11,1,111,practice,avoidloss,practice_avoidloss,3,Play to AVOID LOSING points,3,stimuli/tunga_23.bmp,0,stimuli/tunga_24.bmp,-1,1,24,23,stimuli/tunga_24.bmp,stimuli/tunga_23.bmp,stimuli/tunga_23.bmp,right,06,2021-04-06_12h08.15.625,psyc-347-prosocial-learning,2020.2.4post1,MacIntel,60,,,,,,,,,
left,0,0.91497,stimuli/tunga_23.bmp,1,0,0,1000,1000,practice,0,12,12,12,1,112,practice,avoidloss,practice_avoidloss,3,Play to AVOID LOSING points,4,stimuli/tunga_23.bmp,-1,stimuli/tunga_24.bmp,0,0,23,24,stimuli/tunga_23.bmp,stimuli/tunga_24.bmp,stimuli/tunga_24.bmp,right,06,2021-04-06_12h08.15.625,psyc-347-prosocial-learning,2020.2.4post1,MacIntel,60,,,,,,,,,
right,1,0.982995,stimuli/tunga_24.bmp,0,1,1,1000,1000,practice,0,13,13,13,1,113,practice,avoidloss,practice_avoidloss,3,Play to AVOID LOSING points,5,stimuli/tunga_23.bmp,-1,stimuli/tunga_24.bmp,0,0,23,24,stimuli/tunga_23.bmp,stimuli/tunga_24.bmp,stimuli/tunga_24.bmp,right,06,2021-04-06_12h08.15.625,psyc-347-prosocial-learning,2020.2.4post1,MacIntel,60,,,,,,,,,
left,1,0.63383,stimuli/tunga_24.bmp,0,1,1,1000,1000,practice,0,14,14,14,1,114,practice,avoidloss,practice_avoidloss,3,Play to AVOID LOSING points,6,stimuli/tunga_23.bmp,-1,stimuli/tunga_24.bmp,0,1,24,23,stimuli/tunga_24.bmp,stimuli/tunga_23.bmp,stimuli/tunga_24.bmp,left,06,2021-04-06_12h08.15.625,psyc-347-prosocial-learning,2020.2.4post1,MacIntel,60,,,,,,,,,
left,1,0.553615,stimuli/tunga_24.bmp,0,1,1,1000,1000,practice,0,15,15,15,1,115,practice,avoidloss,practice_avoidloss,3,Play to AVOID LOSING points,7,stimuli/tunga_23.bmp,-1,stimuli/tunga_24.bmp,0,1,24,23,stimuli/tunga_24.bmp,stimuli/tunga_23.bmp,stimuli/tunga_24.bmp,left,06,2021-04-06_12h08.15.625,psyc-347-prosocial-learning,2020.2.4post1,MacIntel,60,,,,,,,,,
right,0,1.21897,stimuli/tunga_09.bmp,0,1,0,1000,1000,social avoid win,,,,,,0,social,win,social_win,1,"Play to WIN points

for the NEXT STUDENT",0,stimuli/tunga_07.bmp,1,stimuli/tunga_09.bmp,0,0,7,9,stimuli/tunga_07.bmp,stimuli/tunga_09.bmp,stimuli/tunga_07.bmp,left,06,2021-04-06_12h08.15.625,psyc-347-prosocial-learning,2020.2.4post1,MacIntel,60,0,0,0,0,0,1,6,2,0
right,0,1.085465,stimuli/tunga_09.bmp,0,1,0,1000,1000,social avoid win,,,,,,1,social,win,social_win,1,"Play to WIN points

for the NEXT STUDENT",1,stimuli/tunga_07.bmp,1,stimuli/tunga_09.bmp,0,0,7,9,stimuli/tunga_07.bmp,stimuli/tunga_09.bmp,stimuli/tunga_07.bmp,left,06,2021-04-06_12h08.15.625,psyc-347-prosocial-learning,2020.2.4post1,MacIntel,60,0,0,1,1,1,1,6,2,0
left,1,0.716625,stimuli/tunga_07.bmp,1,0,1,1000,1100,social win,,,,,,2,social,win,social_win,1,"Play to WIN points

for the NEXT STUDENT",2,stimuli/tunga_07.bmp,1,stimuli/tunga_09.bmp,0,0,7,9,stimuli/tunga_07.bmp,stimuli/tunga_09.bmp,stimuli/tunga_07.bmp,left,06,2021-04-06_12h08.15.625,psyc-347-prosocial-learning,2020.2.4post1,MacIntel,60,1,0,2,2,2,1,6,2,0
right,1,0.61206,stimuli/tunga_07.bmp,1,0,1,1000,1200,social win,,,,,,3,social,win,social_win,1,"Play to WIN points

for the NEXT STUDENT",3,stimuli/tunga_07.bmp,1,stimuli/tunga_09.bmp,0,1,9,7,stimuli/tunga_09.bmp,stimuli/tunga_07.bmp,stimuli/tunga_07.bmp,right,06,2021-04-06_12h08.15.625,psyc-347-prosocial-learning,2020.2.4post1,MacIntel,60,1,0,3,3,3,1,6,2,0
left,0,0.50462,stimuli/tunga_07.bmp,1,0,1,1000,1200,social avoid win,,,,,,4,social,win,social_win,1,"Play to WIN points

for the NEXT STUDENT",4,stimuli/tunga_07.bmp,0,stimuli/tunga_09.bmp,1,0,7,9,stimuli/tunga_07.bmp,stimuli/tunga_09.bmp,stimuli/tunga_09.bmp,right,06,2021-04-06_12h08.15.625,psyc-347-prosocial-learning,2020.2.4post1,MacIntel,60,0,0,4,4,4,1,6,2,0
right,1,0.5202,stimuli/tunga_07.bmp,1,0,1,1000,1300,social win,,,,,,5,social,win,social_win,1,"Play to WIN points

for the NEXT STUDENT",5,stimuli/tunga_07.bmp,1,stimuli/tunga_09.bmp,0,1,9,7,stimuli/tunga_09.bmp,stimuli/tunga_07.bmp,stimuli/tunga_07.bmp,right,06,2021-04-06_12h08.15.625,psyc-347-prosocial-learning,2020.2.4post1,MacIntel,60,1,0,5,5,5,1,6,2,0
left,0,0.883165,stimuli/tunga_07.bmp,1,0,1,1000,1300,social avoid win,,,,,,6,social,win,social_win,1,"Play to WIN points

for the NEXT STUDENT",6,stimuli/tunga_07.bmp,0,stimuli/tunga_09.bmp,1,0,7,9,stimuli/tunga_07.bmp,stimuli/tunga_09.bmp,stimuli/tunga_09.bmp,right,06,2021-04-06_12h08.15.625,psyc-347-prosocial-learning,2020.2.4post1,MacIntel,60,0,0,6,6,6,1,6,2,0
left,1,0.83663,stimuli/tunga_07.bmp,1,0,1,1000,1400,social win,,,,,,7,social,win,social_win,1,"Play to WIN points

for the NEXT STUDENT",7,stimuli/tunga_07.bmp,1,stimuli/tunga_09.bmp,0,0,7,9,stimuli/tunga_07.bmp,stimuli/tunga_09.bmp,stimuli/tunga_07.bmp,left,06,2021-04-06_12h08.15.625,psyc-347-prosocial-learning,2020.2.4post1,MacIntel,60,1,0,7,7,7,1,6,2,0
right,0,0.765075,stimuli/tunga_07.bmp,1,0,1,1000,1400,social avoid win,,,,,,8,social,win,social_win,1,"Play to WIN points

for the NEXT STUDENT",8,stimuli/tunga_07.bmp,0,stimuli/tunga_09.bmp,1,1,9,7,stimuli/tunga_09.bmp,stimuli/tunga_07.bmp,stimuli/tunga_09.bmp,left,06,2021-04-06_12h08.15.625,psyc-347-prosocial-learning,2020.2.4post1,MacIntel,60,0,0,8,8,8,1,6,2,0
right,1,1.186605,stimuli/tunga_07.bmp,1,0,1,1000,1500,social win,,,,,,9,social,win,social_win,1,"Play to WIN points

for the NEXT STUDENT",9,stimuli/tunga_07.bmp,1,stimuli/tunga_09.bmp,0,1,9,7,stimuli/tunga_09.bmp,stimuli/tunga_07.bmp,stimuli/tunga_07.bmp,right,06,2021-04-06_12h08.15.625,psyc-347-prosocial-learning,2020.2.4post1,MacIntel,60,1,0,9,9,9,1,6,2,0
left,1,0.514565,stimuli/tunga_07.bmp,1,0,1,1000,1600,social win,,,,,,10,social,win,social_win,1,"Play to WIN points

for the NEXT STUDENT",10,stimuli/tunga_07.bmp,1,stimuli/tunga_09.bmp,0,0,7,9,stimuli/tunga_07.bmp,stimuli/tunga_09.bmp,stimuli/tunga_07.bmp,left,06,2021-04-06_12h08.15.625,psyc-347-prosocial-learning,2020.2.4post1,MacIntel,60,1,0,10,10,10,1,6,2,0
right,1,0.606135,stimuli/tunga_07.bmp,1,0,1,1000,1700,social win,,,,,,11,social,win,social_win,1,"Play to WIN points

for the NEXT STUDENT",11,stimuli/tunga_07.bmp,1,stimuli/tunga_09.bmp,0,1,9,7,stimuli/tunga_09.bmp,stimuli/tunga_07.bmp,stimuli/tunga_07.bmp,right,06,2021-04-06_12h08.15.625,psyc-347-prosocial-learning,2020.2.4post1,MacIntel,60,1,0,11,11,11,1,6,2,0
left,1,0.500095,stimuli/tunga_07.bmp,1,0,1,1000,1800,social win,,,,,,12,social,win,social_win,1,"Play to WIN points

for the NEXT STUDENT",12,stimuli/tunga_07.bmp,1,stimuli/tunga_09.bmp,0,0,7,9,stimuli/tunga_07.bmp,stimuli/tunga_09.bmp,stimuli/tunga_07.bmp,left,06,2021-04-06_12h08.15.625,psyc-347-prosocial-learning,2020.2.4post1,MacIntel,60,1,0,12,12,12,1,6,2,0
right,1,0.700435,stimuli/tunga_07.bmp,1,0,1,1000,1900,social win,,,,,,13,social,win,social_win,1,"Play to WIN points

for the NEXT STUDENT",13,stimuli/tunga_07.bmp,1,stimuli/tunga_09.bmp,0,1,9,7,stimuli/tunga_09.bmp,stimuli/tunga_07.bmp,stimuli/tunga_07.bmp,right,06,2021-04-06_12h08.15.625,psyc-347-prosocial-learning,2020.2.4post1,MacIntel,60,1,0,13,13,13,1,6,2,0
right,1,0.58337,stimuli/tunga_07.bmp,1,0,1,1000,2000,social win,,,,,,14,social,win,social_win,1,"Play to WIN points

for the NEXT STUDENT",14,stimuli/tunga_07.bmp,1,stimuli/tunga_09.bmp,0,1,9,7,stimuli/tunga_09.bmp,stimuli/tunga_07.bmp,stimuli/tunga_07.bmp,right,06,2021-04-06_12h08.15.625,psyc-347-prosocial-learning,2020.2.4post1,MacIntel,60,1,0,14,14,14,1,6,2,0
left,0,0.466325,stimuli/tunga_07.bmp,1,0,1,1000,2000,social avoid win,,,,,,15,social,win,social_win,1,"Play to WIN points

for the NEXT STUDENT",15,stimuli/tunga_07.bmp,0,stimuli/tunga_09.bmp,1,0,7,9,stimuli/tunga_07.bmp,stimuli/tunga_09.bmp,stimuli/tunga_09.bmp,right,06,2021-04-06_12h08.15.625,psyc-347-prosocial-learning,2020.2.4post1,MacIntel,60,0,0,15,15,15,1,6,2,0
left,0,0.617085,stimuli/tunga_07.bmp,1,0,1,1000,2000,social avoid win,,,,,,16,social,win,social_win,1,"Play to WIN points

for the NEXT STUDENT",16,stimuli/tunga_07.bmp,0,stimuli/tunga_09.bmp,1,0,7,9,stimuli/tunga_07.bmp,stimuli/tunga_09.bmp,stimuli/tunga_09.bmp,right,06,2021-04-06_12h08.15.625,psyc-347-prosocial-learning,2020.2.4post1,MacIntel,60,0,0,16,16,16,1,6,2,0
left,0,0.46575,stimuli/tunga_09.bmp,0,1,0,1000,2000,social avoid win,,,,,,17,social,win,social_win,1,"Play to WIN points

for the NEXT STUDENT",17,stimuli/tunga_07.bmp,1,stimuli/tunga_09.bmp,0,1,9,7,stimuli/tunga_09.bmp,stimuli/tunga_07.bmp,stimuli/tunga_07.bmp,right,06,2021-04-06_12h08.15.625,psyc-347-prosocial-learning,2020.2.4post1,MacIntel,60,0,0,17,17,17,1,6,2,0
right,0,0.649935,stimuli/tunga_07.bmp,1,0,1,1000,2000,social avoid win,,,,,,18,social,win,social_win,1,"Play to WIN points

for the NEXT STUDENT",18,stimuli/tunga_07.bmp,0,stimuli/tunga_09.bmp,1,1,9,7,stimuli/tunga_09.bmp,stimuli/tunga_07.bmp,stimuli/tunga_09.bmp,left,06,2021-04-06_12h08.15.625,psyc-347-prosocial-learning,2020.2.4post1,MacIntel,60,0,0,18,18,18,1,6,2,0
left,1,0.48342,stimuli/tunga_07.bmp,1,0,1,1000,2100,social win,,,,,,19,social,win,social_win,1,"Play to WIN points

for the NEXT STUDENT",19,stimuli/tunga_07.bmp,1,stimuli/tunga_09.bmp,0,0,7,9,stimuli/tunga_07.bmp,stimuli/tunga_09.bmp,stimuli/tunga_07.bmp,left,06,2021-04-06_12h08.15.625,psyc-347-prosocial-learning,2020.2.4post1,MacIntel,60,1,0,19,19,19,1,6,2,0
right,1,0.44997,stimuli/tunga_07.bmp,1,0,1,1000,2200,social win,,,,,,20,social,win,social_win,1,"Play to WIN points

for the NEXT STUDENT",20,stimuli/tunga_07.bmp,1,stimuli/tunga_09.bmp,0,1,9,7,stimuli/tunga_09.bmp,stimuli/tunga_07.bmp,stimuli/tunga_07.bmp,right,06,2021-04-06_12h08.15.625,psyc-347-prosocial-learning,2020.2.4post1,MacIntel,60,1,0,20,20,20,1,6,2,0
right,1,0.681265,stimuli/tunga_07.bmp,1,0,1,1000,2300,social win,,,,,,21,social,win,social_win,1,"Play to WIN points

for the NEXT STUDENT",21,stimuli/tunga_07.bmp,1,stimuli/tunga_09.bmp,0,1,9,7,stimuli/tunga_09.bmp,stimuli/tunga_07.bmp,stimuli/tunga_07.bmp,right,06,2021-04-06_12h08.15.625,psyc-347-prosocial-learning,2020.2.4post1,MacIntel,60,1,0,21,21,21,1,6,2,0
left,1,0.686685,stimuli/tunga_07.bmp,1,0,1,1000,2400,social win,,,,,,22,social,win,social_win,1,"Play to WIN points

for the NEXT STUDENT",22,stimuli/tunga_07.bmp,1,stimuli/tunga_09.bmp,0,0,7,9,stimuli/tunga_07.bmp,stimuli/tunga_09.bmp,stimuli/tunga_07.bmp,left,06,2021-04-06_12h08.15.625,psyc-347-prosocial-learning,2020.2.4post1,MacIntel,60,1,0,22,22,22,1,6,2,0
right,1,0.61617,stimuli/tunga_07.bmp,1,0,1,1000,2500,social win,,,,,,23,social,win,social_win,1,"Play to WIN points

for the NEXT STUDENT",23,stimuli/tunga_07.bmp,1,stimuli/tunga_09.bmp,0,1,9,7,stimuli/tunga_09.bmp,stimuli/tunga_07.bmp,stimuli/tunga_07.bmp,right,06,2021-04-06_12h08.15.625,psyc-347-prosocial-learning,2020.2.4post1,MacIntel,60,1,0,23,23,23,1,6,2,0
left,0,0.814695,stimuli/tunga_11.bmp,0,1,0,1000,2500,self avoid win,,,,,,24,self,win,self_win,0,"Play to WIN points

for YOURSELF",0,stimuli/tunga_05.bmp,1,stimuli/tunga_11.bmp,0,1,11,5,stimuli/tunga_11.bmp,stimuli/tunga_05.bmp,stimuli/tunga_05.bmp,right,06,2021-04-06_12h08.15.625,psyc-347-prosocial-learning,2020.2.4post1,MacIntel,60,0,0,24,24,24,1,6,2,0
left,1,1.036615,stimuli/tunga_05.bmp,1,0,1,1100,2500,self win,,,,,,25,self,win,self_win,0,"Play to WIN points

for YOURSELF",1,stimuli/tunga_05.bmp,1,stimuli/tunga_11.bmp,0,0,5,11,stimuli/tunga_05.bmp,stimuli/tunga_11.bmp,stimuli/tunga_05.bmp,left,06,2021-04-06_12h08.15.625,psyc-347-prosocial-learning,2020.2.4post1,MacIntel,60,1,0,25,25,25,1,6,2,0
right,1,0.697225,stimuli/tunga_05.bmp,1,0,1,1200,2500,self win,,,,,,26,self,win,self_win,0,"Play to WIN points

for YOURSELF",2,stimuli/tunga_05.bmp,1,stimuli/tunga_11.bmp,0,1,11,5,stimuli/tunga_11.bmp,stimuli/tunga_05.bmp,stimuli/tunga_05.bmp,right,06,2021-04-06_12h08.15.625,psyc-347-prosocial-learning,2020.2.4post1,MacIntel,60,1,0,26,26,26,1,6,2,0
left,1,1.09857,stimuli/tunga_05.bmp,1,0,1,1300,2500,self win,,,,,,27,self,win,self_win,0,"Play to WIN points

for YOURSELF",3,stimuli/tunga_05.bmp,1,stimuli/tunga_11.bmp,0,0,5,11,stimuli/tunga_05.bmp,stimuli/tunga_11.bmp,stimuli/tunga_05.bmp,left,06,2021-04-06_12h08.15.625,psyc-347-prosocial-learning,2020.2.4post1,MacIntel,60,1,0,27,27,27,1,6,2,0
right,1,0.51765,stimuli/tunga_05.bmp,1,0,1,1400,2500,self win,,,,,,28,self,win,self_win,0,"Play to WIN points

for YOURSELF",4,stimuli/tunga_05.bmp,1,stimuli/tunga_11.bmp,0,1,11,5,stimuli/tunga_11.bmp,stimuli/tunga_05.bmp,stimuli/tunga_05.bmp,right,06,2021-04-06_12h08.15.625,psyc-347-prosocial-learning,2020.2.4post1,MacIntel,60,1,0,28,28,28,1,6,2,0
right,0,0.98741,stimuli/tunga_05.bmp,1,0,1,1400,2500,self avoid win,,,,,,29,self,win,self_win,0,"Play to WIN points

for YOURSELF",5,stimuli/tunga_05.bmp,0,stimuli/tunga_11.bmp,1,1,11,5,stimuli/tunga_11.bmp,stimuli/tunga_05.bmp,stimuli/tunga_11.bmp,left,06,2021-04-06_12h08.15.625,psyc-347-prosocial-learning,2020.2.4post1,MacIntel,60,0,0,29,29,29,1,6,2,0
right,0,0.63395,stimuli/tunga_05.bmp,1,0,1,1400,2500,self avoid win,,,,,,30,self,win,self_win,0,"Play to WIN points

for YOURSELF",6,stimuli/tunga_05.bmp,0,stimuli/tunga_11.bmp,1,1,11,5,stimuli/tunga_11.bmp,stimuli/tunga_05.bmp,stimuli/tunga_11.bmp,left,06,2021-04-06_12h08.15.625,psyc-347-prosocial-learning,2020.2.4post1,MacIntel,60,0,0,30,30,30,1,6,2,0
right,0,1.260815,stimuli/tunga_11.bmp,0,1,0,1400,2500,self avoid win,,,,,,31,self,win,self_win,0,"Play to WIN points

for YOURSELF",7,stimuli/tunga_05.bmp,1,stimuli/tunga_11.bmp,0,0,5,11,stimuli/tunga_05.bmp,stimuli/tunga_11.bmp,stimuli/tunga_05.bmp,left,06,2021-04-06_12h08.15.625,psyc-347-prosocial-learning,2020.2.4post1,MacIntel,60,0,0,31,31,31,1,6,2,0
left,1,0.551315,stimuli/tunga_05.bmp,1,0,1,1500,2500,self win,,,,,,32,self,win,self_win,0,"Play to WIN points

for YOURSELF",8,stimuli/tunga_05.bmp,1,stimuli/tunga_11.bmp,0,0,5,11,stimuli/tunga_05.bmp,stimuli/tunga_11.bmp,stimuli/tunga_05.bmp,left,06,2021-04-06_12h08.15.625,psyc-347-prosocial-learning,2020.2.4post1,MacIntel,60,1,0,32,32,32,1,6,2,0
right,1,0.719625,stimuli/tunga_05.bmp,1,0,1,1600,2500,self win,,,,,,33,self,win,self_win,0,"Play to WIN points

for YOURSELF",9,stimuli/tunga_05.bmp,1,stimuli/tunga_11.bmp,0,1,11,5,stimuli/tunga_11.bmp,stimuli/tunga_05.bmp,stimuli/tunga_05.bmp,right,06,2021-04-06_12h08.15.625,psyc-347-prosocial-learning,2020.2.4post1,MacIntel,60,1,0,33,33,33,1,6,2,0
right,1,0.518675,stimuli/tunga_05.bmp,1,0,1,1700,2500,self win,,,,,,34,self,win,self_win,0,"Play to WIN points

for YOURSELF",10,stimuli/tunga_05.bmp,1,stimuli/tunga_11.bmp,0,1,11,5,stimuli/tunga_11.bmp,stimuli/tunga_05.bmp,stimuli/tunga_05.bmp,right,06,2021-04-06_12h08.15.625,psyc-347-prosocial-learning,2020.2.4post1,MacIntel,60,1,0,34,34,34,1,6,2,0
right,1,0.516345,stimuli/tunga_05.bmp,1,0,1,1800,2500,self win,,,,,,35,self,win,self_win,0,"Play to WIN points

for YOURSELF",11,stimuli/tunga_05.bmp,1,stimuli/tunga_11.bmp,0,1,11,5,stimuli/tunga_11.bmp,stimuli/tunga_05.bmp,stimuli/tunga_05.bmp,right,06,2021-04-06_12h08.15.625,psyc-347-prosocial-learning,2020.2.4post1,MacIntel,60,1,0,35,35,35,1,6,2,0
right,0,0.728605,stimuli/tunga_11.bmp,0,1,0,1800,2500,self avoid win,,,,,,36,self,win,self_win,0,"Play to WIN points

for YOURSELF",12,stimuli/tunga_05.bmp,1,stimuli/tunga_11.bmp,0,0,5,11,stimuli/tunga_05.bmp,stimuli/tunga_11.bmp,stimuli/tunga_05.bmp,left,06,2021-04-06_12h08.15.625,psyc-347-prosocial-learning,2020.2.4post1,MacIntel,60,0,0,36,36,36,1,6,2,0
left,1,1.315755,stimuli/tunga_05.bmp,1,0,1,1900,2500,self win,,,,,,37,self,win,self_win,0,"Play to WIN points

for YOURSELF",13,stimuli/tunga_05.bmp,1,stimuli/tunga_11.bmp,0,0,5,11,stimuli/tunga_05.bmp,stimuli/tunga_11.bmp,stimuli/tunga_05.bmp,left,06,2021-04-06_12h08.15.625,psyc-347-prosocial-learning,2020.2.4post1,MacIntel,60,1,0,37,37,37,1,6,2,0
right,1,1.13878,stimuli/tunga_05.bmp,1,0,1,2000,2500,self win,,,,,,38,self,win,self_win,0,"Play to WIN points

for YOURSELF",14,stimuli/tunga_05.bmp,1,stimuli/tunga_11.bmp,0,1,11,5,stimuli/tunga_11.bmp,stimuli/tunga_05.bmp,stimuli/tunga_05.bmp,right,06,2021-04-06_12h08.15.625,psyc-347-prosocial-learning,2020.2.4post1,MacIntel,60,1,0,38,38,38,1,6,2,0
left,0,0.731925,stimuli/tunga_05.bmp,1,0,1,2000,2500,self avoid win,,,,,,39,self,win,self_win,0,"Play to WIN points

for YOURSELF",15,stimuli/tunga_05.bmp,0,stimuli/tunga_11.bmp,1,0,5,11,stimuli/tunga_05.bmp,stimuli/tunga_11.bmp,stimuli/tunga_11.bmp,right,06,2021-04-06_12h08.15.625,psyc-347-prosocial-learning,2020.2.4post1,MacIntel,60,0,0,39,39,39,1,6,2,0
left,0,1.04774,stimuli/tunga_05.bmp,1,0,1,2000,2500,self avoid win,,,,,,40,self,win,self_win,0,"Play to WIN points

for YOURSELF",16,stimuli/tunga_05.bmp,0,stimuli/tunga_11.bmp,1,0,5,11,stimuli/tunga_05.bmp,stimuli/tunga_11.bmp,stimuli/tunga_11.bmp,right,06,2021-04-06_12h08.15.625,psyc-347-prosocial-learning,2020.2.4post1,MacIntel,60,0,0,40,40,40,1,6,2,0
left,1,1.233325,stimuli/tunga_05.bmp,1,0,1,2100,2500,self win,,,,,,41,self,win,self_win,0,"Play to WIN points

for YOURSELF",17,stimuli/tunga_05.bmp,1,stimuli/tunga_11.bmp,0,0,5,11,stimuli/tunga_05.bmp,stimuli/tunga_11.bmp,stimuli/tunga_05.bmp,left,06,2021-04-06_12h08.15.625,psyc-347-prosocial-learning,2020.2.4post1,MacIntel,60,1,0,41,41,41,1,6,2,0
right,1,1.6467,stimuli/tunga_05.bmp,1,0,1,2200,2500,self win,,,,,,42,self,win,self_win,0,"Play to WIN points

for YOURSELF",18,stimuli/tunga_05.bmp,1,stimuli/tunga_11.bmp,0,1,11,5,stimuli/tunga_11.bmp,stimuli/tunga_05.bmp,stimuli/tunga_05.bmp,right,06,2021-04-06_12h08.15.625,psyc-347-prosocial-learning,2020.2.4post1,MacIntel,60,1,0,42,42,42,1,6,2,0
left,0,0.532535,stimuli/tunga_05.bmp,1,0,1,2200,2500,self avoid win,,,,,,43,self,win,self_win,0,"Play to WIN points

for YOURSELF",19,stimuli/tunga_05.bmp,0,stimuli/tunga_11.bmp,1,0,5,11,stimuli/tunga_05.bmp,stimuli/tunga_11.bmp,stimuli/tunga_11.bmp,right,06,2021-04-06_12h08.15.625,psyc-347-prosocial-learning,2020.2.4post1,MacIntel,60,0,0,43,43,43,1,6,2,0
left,1,0.92092,stimuli/tunga_11.bmp,0,1,0,2300,2500,self win,,,,,,44,self,win,self_win,0,"Play to WIN points

for YOURSELF",20,stimuli/tunga_05.bmp,0,stimuli/tunga_11.bmp,1,1,11,5,stimuli/tunga_11.bmp,stimuli/tunga_05.bmp,stimuli/tunga_11.bmp,left,06,2021-04-06_12h08.15.625,psyc-347-prosocial-learning,2020.2.4post1,MacIntel,60,1,0,44,44,44,1,6,2,0
left,1,0.788445,stimuli/tunga_05.bmp,1,0,1,2400,2500,self win,,,,,,45,self,win,self_win,0,"Play to WIN points

for YOURSELF",21,stimuli/tunga_05.bmp,1,stimuli/tunga_11.bmp,0,0,5,11,stimuli/tunga_05.bmp,stimuli/tunga_11.bmp,stimuli/tunga_05.bmp,left,06,2021-04-06_12h08.15.625,psyc-347-prosocial-learning,2020.2.4post1,MacIntel,60,1,0,45,45,45,1,6,2,0
right,1,0.766,stimuli/tunga_05.bmp,1,0,1,2500,2500,self win,,,,,,46,self,win,self_win,0,"Play to WIN points

for YOURSELF",22,stimuli/tunga_05.bmp,1,stimuli/tunga_11.bmp,0,1,11,5,stimuli/tunga_11.bmp,stimuli/tunga_05.bmp,stimuli/tunga_05.bmp,right,06,2021-04-06_12h08.15.625,psyc-347-prosocial-learning,2020.2.4post1,MacIntel,60,1,0,46,46,46,1,6,2,0
left,1,0.734745,stimuli/tunga_05.bmp,1,0,1,2600,2500,self win,,,,,,47,self,win,self_win,0,"Play to WIN points

for YOURSELF",23,stimuli/tunga_05.bmp,1,stimuli/tunga_11.bmp,0,0,5,11,stimuli/tunga_05.bmp,stimuli/tunga_11.bmp,stimuli/tunga_05.bmp,left,06,2021-04-06_12h08.15.625,psyc-347-prosocial-learning,2020.2.4post1,MacIntel,60,1,0,47,47,47,1,6,2,0
right,1,1.27919,stimuli/tunga_02.bmp,0,1,1,2600,2500,social avoid loss,,,,,,48,social,avoidloss,social_avoidloss,3,"Play to AVOID LOSING points

for the NEXT STUDENT",0,stimuli/tunga_13.bmp,-1,stimuli/tunga_02.bmp,0,0,13,2,stimuli/tunga_13.bmp,stimuli/tunga_02.bmp,stimuli/tunga_02.bmp,right,06,2021-04-06_12h08.15.625,psyc-347-prosocial-learning,2020.2.4post1,MacIntel,60,0,0,48,48,48,1,6,2,0
right,1,0.720245,stimuli/tunga_02.bmp,0,1,1,2600,2500,social avoid loss,,,,,,49,social,avoidloss,social_avoidloss,3,"Play to AVOID LOSING points

for the NEXT STUDENT",1,stimuli/tunga_13.bmp,-1,stimuli/tunga_02.bmp,0,0,13,2,stimuli/tunga_13.bmp,stimuli/tunga_02.bmp,stimuli/tunga_02.bmp,right,06,2021-04-06_12h08.15.625,psyc-347-prosocial-learning,2020.2.4post1,MacIntel,60,0,0,49,49,49,1,6,2,0
right,0,0.700475,stimuli/tunga_02.bmp,0,1,1,2600,2400,social lose,,,,,,50,social,avoidloss,social_avoidloss,3,"Play to AVOID LOSING points

for the NEXT STUDENT",2,stimuli/tunga_13.bmp,0,stimuli/tunga_02.bmp,-1,0,13,2,stimuli/tunga_13.bmp,stimuli/tunga_02.bmp,stimuli/tunga_13.bmp,left,06,2021-04-06_12h08.15.625,psyc-347-prosocial-learning,2020.2.4post1,MacIntel,60,-1,0,50,50,50,1,6,2,0
left,0,0.468485,stimuli/tunga_13.bmp,1,0,0,2600,2300,social lose,,,,,,51,social,avoidloss,social_avoidloss,3,"Play to AVOID LOSING points

for the NEXT STUDENT",3,stimuli/tunga_13.bmp,-1,stimuli/tunga_02.bmp,0,0,13,2,stimuli/tunga_13.bmp,stimuli/tunga_02.bmp,stimuli/tunga_02.bmp,right,06,2021-04-06_12h08.15.625,psyc-347-prosocial-learning,2020.2.4post1,MacIntel,60,-1,0,51,51,51,1,6,2,0
right,1,0.47277,stimuli/tunga_02.bmp,0,1,1,2600,2300,social avoid loss,,,,,,52,social,avoidloss,social_avoidloss,3,"Play to AVOID LOSING points

for the NEXT STUDENT",4,stimuli/tunga_13.bmp,-1,stimuli/tunga_02.bmp,0,0,13,2,stimuli/tunga_13.bmp,stimuli/tunga_02.bmp,stimuli/tunga_02.bmp,right,06,2021-04-06_12h08.15.625,psyc-347-prosocial-learning,2020.2.4post1,MacIntel,60,0,0,52,52,52,1,6,2,0
right,1,0.68238,stimuli/tunga_02.bmp,0,1,1,2600,2300,social avoid loss,,,,,,53,social,avoidloss,social_avoidloss,3,"Play to AVOID LOSING points

for the NEXT STUDENT",5,stimuli/tunga_13.bmp,-1,stimuli/tunga_02.bmp,0,0,13,2,stimuli/tunga_13.bmp,stimuli/tunga_02.bmp,stimuli/tunga_02.bmp,right,06,2021-04-06_12h08.15.625,psyc-347-prosocial-learning,2020.2.4post1,MacIntel,60,0,0,53,53,53,1,6,2,0
left,1,0.64899,stimuli/tunga_02.bmp,0,1,1,2600,2300,social avoid loss,,,,,,54,social,avoidloss,social_avoidloss,3,"Play to AVOID LOSING points

for the NEXT STUDENT",6,stimuli/tunga_13.bmp,-1,stimuli/tunga_02.bmp,0,1,2,13,stimuli/tunga_02.bmp,stimuli/tunga_13.bmp,stimuli/tunga_02.bmp,left,06,2021-04-06_12h08.15.625,psyc-347-prosocial-learning,2020.2.4post1,MacIntel,60,0,0,54,54,54,1,6,2,0
left,1,0.76796,stimuli/tunga_02.bmp,0,1,1,2600,2300,social avoid loss,,,,,,55,social,avoidloss,social_avoidloss,3,"Play to AVOID LOSING points

for the NEXT STUDENT",7,stimuli/tunga_13.bmp,-1,stimuli/tunga_02.bmp,0,1,2,13,stimuli/tunga_02.bmp,stimuli/tunga_13.bmp,stimuli/tunga_02.bmp,left,06,2021-04-06_12h08.15.625,psyc-347-prosocial-learning,2020.2.4post1,MacIntel,60,0,0,55,55,55,1,6,2,0
right,1,1.320335,stimuli/tunga_02.bmp,0,1,1,2600,2300,social avoid loss,,,,,,56,social,avoidloss,social_avoidloss,3,"Play to AVOID LOSING points

for the NEXT STUDENT",8,stimuli/tunga_13.bmp,-1,stimuli/tunga_02.bmp,0,0,13,2,stimuli/tunga_13.bmp,stimuli/tunga_02.bmp,stimuli/tunga_02.bmp,right,06,2021-04-06_12h08.15.625,psyc-347-prosocial-learning,2020.2.4post1,MacIntel,60,0,0,56,56,56,1,6,2,0
right,0,1.64662,stimuli/tunga_02.bmp,0,1,1,2600,2200,social lose,,,,,,57,social,avoidloss,social_avoidloss,3,"Play to AVOID LOSING points

for the NEXT STUDENT",9,stimuli/tunga_13.bmp,0,stimuli/tunga_02.bmp,-1,0,13,2,stimuli/tunga_13.bmp,stimuli/tunga_02.bmp,stimuli/tunga_13.bmp,left,06,2021-04-06_12h08.15.625,psyc-347-prosocial-learning,2020.2.4post1,MacIntel,60,-1,0,57,57,57,1,6,2,0
left,0,0.91584,stimuli/tunga_13.bmp,1,0,0,2600,2100,social lose,,,,,,58,social,avoidloss,social_avoidloss,3,"Play to AVOID LOSING points

for the NEXT STUDENT",10,stimuli/tunga_13.bmp,-1,stimuli/tunga_02.bmp,0,0,13,2,stimuli/tunga_13.bmp,stimuli/tunga_02.bmp,stimuli/tunga_02.bmp,right,06,2021-04-06_12h08.15.625,psyc-347-prosocial-learning,2020.2.4post1,MacIntel,60,-1,0,58,58,58,1,6,2,0
left,1,0.634505,stimuli/tunga_02.bmp,0,1,1,2600,2100,social avoid loss,,,,,,59,social,avoidloss,social_avoidloss,3,"Play to AVOID LOSING points

for the NEXT STUDENT",11,stimuli/tunga_13.bmp,-1,stimuli/tunga_02.bmp,0,1,2,13,stimuli/tunga_02.bmp,stimuli/tunga_13.bmp,stimuli/tunga_02.bmp,left,06,2021-04-06_12h08.15.625,psyc-347-prosocial-learning,2020.2.4post1,MacIntel,60,0,0,59,59,59,1,6,2,0
left,0,0.51753,stimuli/tunga_02.bmp,0,1,1,2600,2000,social lose,,,,,,60,social,avoidloss,social_avoidloss,3,"Play to AVOID LOSING points

for the NEXT STUDENT",12,stimuli/tunga_13.bmp,0,stimuli/tunga_02.bmp,-1,1,2,13,stimuli/tunga_02.bmp,stimuli/tunga_13.bmp,stimuli/tunga_13.bmp,right,06,2021-04-06_12h08.15.625,psyc-347-prosocial-learning,2020.2.4post1,MacIntel,60,-1,0,60,60,60,1,6,2,0
left,1,0.598425,stimuli/tunga_02.bmp,0,1,1,2600,2000,social avoid loss,,,,,,61,social,avoidloss,social_avoidloss,3,"Play to AVOID LOSING points

for the NEXT STUDENT",13,stimuli/tunga_13.bmp,-1,stimuli/tunga_02.bmp,0,1,2,13,stimuli/tunga_02.bmp,stimuli/tunga_13.bmp,stimuli/tunga_02.bmp,left,06,2021-04-06_12h08.15.625,psyc-347-prosocial-learning,2020.2.4post1,MacIntel,60,0,0,61,61,61,1,6,2,0
left,1,0.803525,stimuli/tunga_02.bmp,0,1,1,2600,2000,social avoid loss,,,,,,62,social,avoidloss,social_avoidloss,3,"Play to AVOID LOSING points

for the NEXT STUDENT",14,stimuli/tunga_13.bmp,-1,stimuli/tunga_02.bmp,0,1,2,13,stimuli/tunga_02.bmp,stimuli/tunga_13.bmp,stimuli/tunga_02.bmp,left,06,2021-04-06_12h08.15.625,psyc-347-prosocial-learning,2020.2.4post1,MacIntel,60,0,0,62,62,62,1,6,2,0
left,0,0.518145,stimuli/tunga_02.bmp,0,1,1,2600,1900,social lose,,,,,,63,social,avoidloss,social_avoidloss,3,"Play to AVOID LOSING points

for the NEXT STUDENT",15,stimuli/tunga_13.bmp,0,stimuli/tunga_02.bmp,-1,1,2,13,stimuli/tunga_02.bmp,stimuli/tunga_13.bmp,stimuli/tunga_13.bmp,right,06,2021-04-06_12h08.15.625,psyc-347-prosocial-learning,2020.2.4post1,MacIntel,60,-1,0,63,63,63,1,6,2,0
left,0,0.583355,stimuli/tunga_02.bmp,0,1,1,2600,1800,social lose,,,,,,64,social,avoidloss,social_avoidloss,3,"Play to AVOID LOSING points

for the NEXT STUDENT",16,stimuli/tunga_13.bmp,0,stimuli/tunga_02.bmp,-1,1,2,13,stimuli/tunga_02.bmp,stimuli/tunga_13.bmp,stimuli/tunga_13.bmp,right,06,2021-04-06_12h08.15.625,psyc-347-prosocial-learning,2020.2.4post1,MacIntel,60,-1,0,64,64,64,1,6,2,0
right,1,0.69721,stimuli/tunga_02.bmp,0,1,1,2600,1800,social avoid loss,,,,,,65,social,avoidloss,social_avoidloss,3,"Play to AVOID LOSING points

for the NEXT STUDENT",17,stimuli/tunga_13.bmp,-1,stimuli/tunga_02.bmp,0,0,13,2,stimuli/tunga_13.bmp,stimuli/tunga_02.bmp,stimuli/tunga_02.bmp,right,06,2021-04-06_12h08.15.625,psyc-347-prosocial-learning,2020.2.4post1,MacIntel,60,0,0,65,65,65,1,6,2,0
right,1,0.53654,stimuli/tunga_02.bmp,0,1,1,2600,1800,social avoid loss,,,,,,66,social,avoidloss,social_avoidloss,3,"Play to AVOID LOSING points

for the NEXT STUDENT",18,stimuli/tunga_13.bmp,-1,stimuli/tunga_02.bmp,0,0,13,2,stimuli/tunga_13.bmp,stimuli/tunga_02.bmp,stimuli/tunga_02.bmp,right,06,2021-04-06_12h08.15.625,psyc-347-prosocial-learning,2020.2.4post1,MacIntel,60,0,0,66,66,66,1,6,2,0
right,1,0.499585,stimuli/tunga_02.bmp,0,1,1,2600,1800,social avoid loss,,,,,,67,social,avoidloss,social_avoidloss,3,"Play to AVOID LOSING points

for the NEXT STUDENT",19,stimuli/tunga_13.bmp,-1,stimuli/tunga_02.bmp,0,0,13,2,stimuli/tunga_13.bmp,stimuli/tunga_02.bmp,stimuli/tunga_02.bmp,right,06,2021-04-06_12h08.15.625,psyc-347-prosocial-learning,2020.2.4post1,MacIntel,60,0,0,67,67,67,1,6,2,0
left,0,0.56878,stimuli/tunga_02.bmp,0,1,1,2600,1700,social lose,,,,,,68,social,avoidloss,social_avoidloss,3,"Play to AVOID LOSING points

for the NEXT STUDENT",20,stimuli/tunga_13.bmp,0,stimuli/tunga_02.bmp,-1,1,2,13,stimuli/tunga_02.bmp,stimuli/tunga_13.bmp,stimuli/tunga_13.bmp,right,06,2021-04-06_12h08.15.625,psyc-347-prosocial-learning,2020.2.4post1,MacIntel,60,-1,0,68,68,68,1,6,2,0
right,0,0.59746,stimuli/tunga_13.bmp,1,0,0,2600,1600,social lose,,,,,,69,social,avoidloss,social_avoidloss,3,"Play to AVOID LOSING points

for the NEXT STUDENT",21,stimuli/tunga_13.bmp,-1,stimuli/tunga_02.bmp,0,1,2,13,stimuli/tunga_02.bmp,stimuli/tunga_13.bmp,stimuli/tunga_02.bmp,left,06,2021-04-06_12h08.15.625,psyc-347-prosocial-learning,2020.2.4post1,MacIntel,60,-1,0,69,69,69,1,6,2,0
left,1,0.464015,stimuli/tunga_02.bmp,0,1,1,2600,1600,social avoid loss,,,,,,70,social,avoidloss,social_avoidloss,3,"Play to AVOID LOSING points

for the NEXT STUDENT",22,stimuli/tunga_13.bmp,-1,stimuli/tunga_02.bmp,0,1,2,13,stimuli/tunga_02.bmp,stimuli/tunga_13.bmp,stimuli/tunga_02.bmp,left,06,2021-04-06_12h08.15.625,psyc-347-prosocial-learning,2020.2.4post1,MacIntel,60,0,0,70,70,70,1,6,2,0
left,1,0.565285,stimuli/tunga_02.bmp,0,1,1,2600,1600,social avoid loss,,,,,,71,social,avoidloss,social_avoidloss,3,"Play to AVOID LOSING points

for the NEXT STUDENT",23,stimuli/tunga_13.bmp,-1,stimuli/tunga_02.bmp,0,1,2,13,stimuli/tunga_02.bmp,stimuli/tunga_13.bmp,stimuli/tunga_02.bmp,left,06,2021-04-06_12h08.15.625,psyc-347-prosocial-learning,2020.2.4post1,MacIntel,60,0,0,71,71,71,1,6,2,0
right,0,0.84297,stimuli/tunga_03.bmp,1,0,0,2500,1600,self lose,,,,,,72,self,avoidloss,self_avoidloss,2,"Play to AVOID LOSING points

for YOURSELF",0,stimuli/tunga_03.bmp,-1,stimuli/tunga_08.bmp,0,1,8,3,stimuli/tunga_08.bmp,stimuli/tunga_03.bmp,stimuli/tunga_08.bmp,left,06,2021-04-06_12h08.15.625,psyc-347-prosocial-learning,2020.2.4post1,MacIntel,60,-1,0,72,72,72,1,6,2,0
right,1,0.91833,stimuli/tunga_08.bmp,0,1,1,2500,1600,self avoid loss,,,,,,73,self,avoidloss,self_avoidloss,2,"Play to AVOID LOSING points

for YOURSELF",1,stimuli/tunga_03.bmp,-1,stimuli/tunga_08.bmp,0,0,3,8,stimuli/tunga_03.bmp,stimuli/tunga_08.bmp,stimuli/tunga_08.bmp,right,06,2021-04-06_12h08.15.625,psyc-347-prosocial-learning,2020.2.4post1,MacIntel,60,0,0,73,73,73,1,6,2,0
right,1,0.62198,stimuli/tunga_08.bmp,0,1,1,2500,1600,self avoid loss,,,,,,74,self,avoidloss,self_avoidloss,2,"Play to AVOID LOSING points

for YOURSELF",2,stimuli/tunga_03.bmp,-1,stimuli/tunga_08.bmp,0,0,3,8,stimuli/tunga_03.bmp,stimuli/tunga_08.bmp,stimuli/tunga_08.bmp,right,06,2021-04-06_12h08.15.625,psyc-347-prosocial-learning,2020.2.4post1,MacIntel,60,0,0,74,74,74,1,6,2,0
right,1,0.465275,stimuli/tunga_08.bmp,0,1,1,2500,1600,self avoid loss,,,,,,75,self,avoidloss,self_avoidloss,2,"Play to AVOID LOSING points

for YOURSELF",3,stimuli/tunga_03.bmp,-1,stimuli/tunga_08.bmp,0,0,3,8,stimuli/tunga_03.bmp,stimuli/tunga_08.bmp,stimuli/tunga_08.bmp,right,06,2021-04-06_12h08.15.625,psyc-347-prosocial-learning,2020.2.4post1,MacIntel,60,0,0,75,75,75,1,6,2,0
left,0,0.647235,stimuli/tunga_08.bmp,0,1,1,2400,1600,self lose,,,,,,76,self,avoidloss,self_avoidloss,2,"Play to AVOID LOSING points

for YOURSELF",4,stimuli/tunga_03.bmp,0,stimuli/tunga_08.bmp,-1,1,8,3,stimuli/tunga_08.bmp,stimuli/tunga_03.bmp,stimuli/tunga_03.bmp,right,06,2021-04-06_12h08.15.625,psyc-347-prosocial-learning,2020.2.4post1,MacIntel,60,-1,0,76,76,76,1,6,2,0
left,0,0.58057,stimuli/tunga_03.bmp,1,0,0,2300,1600,self lose,,,,,,77,self,avoidloss,self_avoidloss,2,"Play to AVOID LOSING points

for YOURSELF",5,stimuli/tunga_03.bmp,-1,stimuli/tunga_08.bmp,0,0,3,8,stimuli/tunga_03.bmp,stimuli/tunga_08.bmp,stimuli/tunga_08.bmp,right,06,2021-04-06_12h08.15.625,psyc-347-prosocial-learning,2020.2.4post1,MacIntel,60,-1,0,77,77,77,1,6,2,0
left,1,1.028785,stimuli/tunga_08.bmp,0,1,1,2300,1600,self avoid loss,,,,,,78,self,avoidloss,self_avoidloss,2,"Play to AVOID LOSING points

for YOURSELF",6,stimuli/tunga_03.bmp,-1,stimuli/tunga_08.bmp,0,1,8,3,stimuli/tunga_08.bmp,stimuli/tunga_03.bmp,stimuli/tunga_08.bmp,left,06,2021-04-06_12h08.15.625,psyc-347-prosocial-learning,2020.2.4post1,MacIntel,60,0,0,78,78,78,1,6,2,0
right,1,0.715265,stimuli/tunga_08.bmp,0,1,1,2300,1600,self avoid loss,,,,,,79,self,avoidloss,self_avoidloss,2,"Play to AVOID LOSING points

for YOURSELF",7,stimuli/tunga_03.bmp,-1,stimuli/tunga_08.bmp,0,0,3,8,stimuli/tunga_03.bmp,stimuli/tunga_08.bmp,stimuli/tunga_08.bmp,right,06,2021-04-06_12h08.15.625,psyc-347-prosocial-learning,2020.2.4post1,MacIntel,60,0,0,79,79,79,1,6,2,0
right,1,0.554505,stimuli/tunga_08.bmp,0,1,1,2300,1600,self avoid loss,,,,,,80,self,avoidloss,self_avoidloss,2,"Play to AVOID LOSING points

for YOURSELF",8,stimuli/tunga_03.bmp,-1,stimuli/tunga_08.bmp,0,0,3,8,stimuli/tunga_03.bmp,stimuli/tunga_08.bmp,stimuli/tunga_08.bmp,right,06,2021-04-06_12h08.15.625,psyc-347-prosocial-learning,2020.2.4post1,MacIntel,60,0,0,80,80,80,1,6,2,0
right,0,0.60248,stimuli/tunga_08.bmp,0,1,1,2200,1600,self lose,,,,,,81,self,avoidloss,self_avoidloss,2,"Play to AVOID LOSING points

for YOURSELF",9,stimuli/tunga_03.bmp,0,stimuli/tunga_08.bmp,-1,0,3,8,stimuli/tunga_03.bmp,stimuli/tunga_08.bmp,stimuli/tunga_03.bmp,left,06,2021-04-06_12h08.15.625,psyc-347-prosocial-learning,2020.2.4post1,MacIntel,60,-1,0,81,81,81,1,6,2,0
left,1,0.616725,stimuli/tunga_08.bmp,0,1,1,2200,1600,self avoid loss,,,,,,82,self,avoidloss,self_avoidloss,2,"Play to AVOID LOSING points

for YOURSELF",10,stimuli/tunga_03.bmp,-1,stimuli/tunga_08.bmp,0,1,8,3,stimuli/tunga_08.bmp,stimuli/tunga_03.bmp,stimuli/tunga_08.bmp,left,06,2021-04-06_12h08.15.625,psyc-347-prosocial-learning,2020.2.4post1,MacIntel,60,0,0,82,82,82,1,6,2,0
left,1,0.58402,stimuli/tunga_08.bmp,0,1,1,2200,1600,self avoid loss,,,,,,83,self,avoidloss,self_avoidloss,2,"Play to AVOID LOSING points

for YOURSELF",11,stimuli/tunga_03.bmp,-1,stimuli/tunga_08.bmp,0,1,8,3,stimuli/tunga_08.bmp,stimuli/tunga_03.bmp,stimuli/tunga_08.bmp,left,06,2021-04-06_12h08.15.625,psyc-347-prosocial-learning,2020.2.4post1,MacIntel,60,0,0,83,83,83,1,6,2,0
left,1,0.51525,stimuli/tunga_08.bmp,0,1,1,2200,1600,self avoid loss,,,,,,84,self,avoidloss,self_avoidloss,2,"Play to AVOID LOSING points

for YOURSELF",12,stimuli/tunga_03.bmp,-1,stimuli/tunga_08.bmp,0,1,8,3,stimuli/tunga_08.bmp,stimuli/tunga_03.bmp,stimuli/tunga_08.bmp,left,06,2021-04-06_12h08.15.625,psyc-347-prosocial-learning,2020.2.4post1,MacIntel,60,0,0,84,84,84,1,6,2,0
left,0,0.63256,stimuli/tunga_08.bmp,0,1,1,2100,1600,self lose,,,,,,85,self,avoidloss,self_avoidloss,2,"Play to AVOID LOSING points

for YOURSELF",13,stimuli/tunga_03.bmp,0,stimuli/tunga_08.bmp,-1,1,8,3,stimuli/tunga_08.bmp,stimuli/tunga_03.bmp,stimuli/tunga_03.bmp,right,06,2021-04-06_12h08.15.625,psyc-347-prosocial-learning,2020.2.4post1,MacIntel,60,-1,0,85,85,85,1,6,2,0
right,0,0.619215,stimuli/tunga_08.bmp,0,1,1,2000,1600,self lose,,,,,,86,self,avoidloss,self_avoidloss,2,"Play to AVOID LOSING points

for YOURSELF",14,stimuli/tunga_03.bmp,0,stimuli/tunga_08.bmp,-1,0,3,8,stimuli/tunga_03.bmp,stimuli/tunga_08.bmp,stimuli/tunga_03.bmp,left,06,2021-04-06_12h08.15.625,psyc-347-prosocial-learning,2020.2.4post1,MacIntel,60,-1,0,86,86,86,1,6,2,0
right,0,1.016515,stimuli/tunga_08.bmp,0,1,1,1900,1600,self lose,,,,,,87,self,avoidloss,self_avoidloss,2,"Play to AVOID LOSING points

for YOURSELF",15,stimuli/tunga_03.bmp,0,stimuli/tunga_08.bmp,-1,0,3,8,stimuli/tunga_03.bmp,stimuli/tunga_08.bmp,stimuli/tunga_03.bmp,left,06,2021-04-06_12h08.15.625,psyc-347-prosocial-learning,2020.2.4post1,MacIntel,60,-1,0,87,87,87,1,6,2,0
right,0,1.216455,stimuli/tunga_03.bmp,1,0,0,1800,1600,self lose,,,,,,88,self,avoidloss,self_avoidloss,2,"Play to AVOID LOSING points

for YOURSELF",16,stimuli/tunga_03.bmp,-1,stimuli/tunga_08.bmp,0,1,8,3,stimuli/tunga_08.bmp,stimuli/tunga_03.bmp,stimuli/tunga_08.bmp,left,06,2021-04-06_12h08.15.625,psyc-347-prosocial-learning,2020.2.4post1,MacIntel,60,-1,0,88,88,88,1,6,2,0
right,1,0.66954,stimuli/tunga_08.bmp,0,1,1,1800,1600,self avoid loss,,,,,,89,self,avoidloss,self_avoidloss,2,"Play to AVOID LOSING points

for YOURSELF",17,stimuli/tunga_03.bmp,-1,stimuli/tunga_08.bmp,0,0,3,8,stimuli/tunga_03.bmp,stimuli/tunga_08.bmp,stimuli/tunga_08.bmp,right,06,2021-04-06_12h08.15.625,psyc-347-prosocial-learning,2020.2.4post1,MacIntel,60,0,0,89,89,89,1,6,2,0
right,1,0.46847,stimuli/tunga_08.bmp,0,1,1,1800,1600,self avoid loss,,,,,,90,self,avoidloss,self_avoidloss,2,"Play to AVOID LOSING points

for YOURSELF",18,stimuli/tunga_03.bmp,-1,stimuli/tunga_08.bmp,0,0,3,8,stimuli/tunga_03.bmp,stimuli/tunga_08.bmp,stimuli/tunga_08.bmp,right,06,2021-04-06_12h08.15.625,psyc-347-prosocial-learning,2020.2.4post1,MacIntel,60,0,0,90,90,90,1,6,2,0
left,1,0.63348,stimuli/tunga_08.bmp,0,1,1,1800,1600,self avoid loss,,,,,,91,self,avoidloss,self_avoidloss,2,"Play to AVOID LOSING points

for YOURSELF",19,stimuli/tunga_03.bmp,-1,stimuli/tunga_08.bmp,0,1,8,3,stimuli/tunga_08.bmp,stimuli/tunga_03.bmp,stimuli/tunga_08.bmp,left,06,2021-04-06_12h08.15.625,psyc-347-prosocial-learning,2020.2.4post1,MacIntel,60,0,0,91,91,91,1,6,2,0
left,1,0.498875,stimuli/tunga_08.bmp,0,1,1,1800,1600,self avoid loss,,,,,,92,self,avoidloss,self_avoidloss,2,"Play to AVOID LOSING points

for YOURSELF",20,stimuli/tunga_03.bmp,-1,stimuli/tunga_08.bmp,0,1,8,3,stimuli/tunga_08.bmp,stimuli/tunga_03.bmp,stimuli/tunga_08.bmp,left,06,2021-04-06_12h08.15.625,psyc-347-prosocial-learning,2020.2.4post1,MacIntel,60,0,0,92,92,92,1,6,2,0
right,1,0.5173,stimuli/tunga_08.bmp,0,1,1,1800,1600,self avoid loss,,,,,,93,self,avoidloss,self_avoidloss,2,"Play to AVOID LOSING points

for YOURSELF",21,stimuli/tunga_03.bmp,-1,stimuli/tunga_08.bmp,0,0,3,8,stimuli/tunga_03.bmp,stimuli/tunga_08.bmp,stimuli/tunga_08.bmp,right,06,2021-04-06_12h08.15.625,psyc-347-prosocial-learning,2020.2.4post1,MacIntel,60,0,0,93,93,93,1,6,2,0
left,0,0.488745,stimuli/tunga_08.bmp,0,1,1,1700,1600,self lose,,,,,,94,self,avoidloss,self_avoidloss,2,"Play to AVOID LOSING points

for YOURSELF",22,stimuli/tunga_03.bmp,0,stimuli/tunga_08.bmp,-1,1,8,3,stimuli/tunga_08.bmp,stimuli/tunga_03.bmp,stimuli/tunga_03.bmp,right,06,2021-04-06_12h08.15.625,psyc-347-prosocial-learning,2020.2.4post1,MacIntel,60,-1,0,94,94,94,1,6,2,0
left,1,0.48368,stimuli/tunga_08.bmp,0,1,1,1700,1600,self avoid loss,,,,,,95,self,avoidloss,self_avoidloss,2,"Play to AVOID LOSING points

for YOURSELF",23,stimuli/tunga_03.bmp,-1,stimuli/tunga_08.bmp,0,1,8,3,stimuli/tunga_08.bmp,stimuli/tunga_03.bmp,stimuli/tunga_08.bmp,left,06,2021-04-06_12h08.15.625,psyc-347-prosocial-learning,2020.2.4post1,MacIntel,60,0,0,95,95,95,1,6,2,0
